[PHASE1] Waiting for all 3 IMUs (required for MAS data)...
[PHASE1] Init attempt 1...
[IMU] === 3-device init start ===
[IMU] LPSPI1 init OK
[IMU0] Resetting device (100 ms)...
[IMU0] WHO_AM_I = 0x70  (attempt 1, expected 0x70)
[IMU0] ax=4294963020 ay=4294951612 az=4294960568 |a|= (expect ~16384)
[IMU0] config OK
[IMU1] Resetting device (100 ms)...
[IMU1] WHO_AM_I = 0x70  (attempt 1, expected 0x70)
[IMU1] ax=4294965084 ay=  9676 az= 10868 |a|= (expect ~16384)
[IMU1] config OK
[IMU2] Resetting device (100 ms)...
[IMU2] WHO_AM_I = 0x70  (attempt 1, expected 0x70)
[IMU2] ax= 14324 ay=4294963796 az=  6384 |a|= (expect ~16384)
[IMU2] config OK
[IMU] === Init done: IMU0=OK  IMU1=OK  IMU2=OK ===
[PHASE1] IMU0(LA)=OK  IMU1(RA)=OK  IMU2(RL)=OK
[PHASE1] All 3 IMUs confirmed. Proceeding.
[PHASE1] =============================================
[PHASE1]  Mode      : ECG_IMU (Phase 3 MAS analysis)
[PHASE1]  Fields    : t_us, ecg_corr, 3x(ax,ay,az,gx,gy,gz) = 20
[PHASE1]  Rate      : ~250 Hz effective (PRINTF 2.88 ms > 2 ms tick)
[PHASE1]             Catch-up fires each iteration -> 4 ms period.
[PHASE1]             Actual Fs confirmed via t_us timestamps.
[PHASE1]  Baud load : ~36000 B/s  (72% of 50000 B/s ceiling)
[PHASE1]  Nyquist   : 125 Hz >> 40 Hz passband  (3.1x margin)
[PHASE1]  IMU data  : RAW int16 register values (Kalman bypassed)
[PHASE1]             Accel: /16384 -> g-units
[PHASE1]             Gyro : /131   -> deg/s
[PHASE1]  IMU sites : IMU0=Left Arm  IMU1=Right Arm  IMU2=Right Leg
[PHASE1]  Use for   : M1-M13 MAS algorithm evaluation
[PHASE1]             (includes M9-M13 gyro-augmented algorithms)
[PHASE1] =============================================
[PHASE1]  Baud rate : 500000  (confirm PuTTY matches)
[PHASE1]  MATLAB    : data = readmatrix('file.txt')
[PHASE1]             t_s  = data(:,1)/1e6
[PHASE1]             ecg  = data(:,2)*(1800/4096)
[PHASE1] =============================================
t_us,ecg_corr,ax0,ay0,az0,gx0,gy0,gz0,ax1,ay1,az1,gx1,gy1,gz1,ax2,ay2,az2,gx2,gy2,gz2
29433085,1714,2778,4294952139,5567,535,322,379,2250,16721,4294966432,33,4294967126,4294967125,14334,4294963613,8109,159,235,4294967250
29439085,4294964947,2788,4294952102,5530,549,361,395,2299,16718,4294966485,4294967291,4294967127,4294967157,14323,4294963615,8120,167,221,4294967260
29445085,4294964919,2783,4294952102,5548,546,350,407,2227,16755,4294966406,4294967249,4294967151,4294967181,14352,4294963617,8116,184,238,4294967265
29451085,1712,2758,4294952116,5525,547,341,405,2249,16684,4294966352,4294967185,4294967163,4294967194,14360,4294963602,8083,165,208,4294967264
29457085,529,2721,4294952131,5635,535,309,412,2276,16704,4294966320,4294967139,4294967142,4294967199,14344,4294963630,8163,174,214,4294967254
29463085,4294964929,2809,4294952089,5664,509,297,429,2215,16720,4294966312,4294967117,4294967159,4294967189,14334,4294963608,8131,170,216,4294967293
29469085,1715,2784,4294952040,5689,476,257,415,2317,16684,4294966287,4294967110,4294967133,4294967168,14374,4294963619,8187,158,232,4294967260
29475085,1704,2837,4294952028,5676,462,247,417,2297,16628,4294966380,4294967133,4294967137,4294967201,14357,4294963647,8169,166,204,4294967266
29481085,4294964928,2877,4294951948,5738,445,246,382,2300,16608,4294966420,4294967119,4294967130,4294967194,14333,4294963610,8178,158,212,4294967268
29487085,4294966168,2815,4294951929,5692,461,239,336,2295,16567,4294966370,4294967153,4294967126,4294967182,14342,4294963613,8221,158,204,4294967272
29493085,1715,2826,4294951926,5609,507,261,321,2307,16564,4294966438,4294967156,4294967131,4294967166,14426,4294963590,8102,178,223,4294967268
29499085,4294964916,2814,4294952032,5617,518,296,285,2347,16590,4294966479,4294967174,4294967136,4294967169,14348,4294963641,8137,178,206,4294967272
29505085,4294964920,2823,4294952032,5661,567,301,297,2372,16568,4294966530,4294967188,4294967146,4294967180,14353,4294963621,8173,155,191,4294967283
29511085,1714,2779,4294952076,5662,610,303,286,2315,16529,4294966541,4294967150,4294967187,4294967182,14301,4294963585,8134,203,187,4294967278
29517085,509,2785,4294952098,5598,696,322,261,2307,16572,4294966517,4294967156,4294967178,4294967187,14402,4294963637,8136,184,186,4294967286
29523085,4294964923,2750,4294952132,5701,743,322,302,2280,16597,4294966478,4294967180,4294967190,4294967170,14412,4294963656,8149,198,189,4
29529085,1709,2780,4294952159,5562,771,314,291,2249,16573,4294966435,4294967253,4294967184,4294967127,14379,4294963636,8100,195,191,4294967283
29535085,1704,2755,4294952158,5554,764,356,308,2275,16603,4294966417,0,4294967204,4294967119,14420,4294963639,8087,175,195,4294967280
29541085,4294964937,2731,4294952164,5456,738,335,332,2256,16567,4294966360,33,4294967187,4294967118,14386,4294963638,8129,176,195,13
29547085,4294966181,2733,4294952169,5505,681,336,337,2234,16683,4294966440,34,4294967130,4294967105,14353,4294963605,8134,204,180,7
29553085,1710,2737,4294952134,5559,621,324,345,2218,16691,4294966371,56,4294967026,4294967094,14355,4294963612,8051,172,194,4294967290
29559085,4294964934,2751,4294952147,5555,532,307,357,2249,16776,4294966309,36,4294967020,4294967098,14365,4294963653,8130,176,171,4294967273
29565085,4294964942,2733,4294952180,5603,469,298,336,2353,16789,4294966287,4294967252,4294967138,4294967115,14372,4294963647,8133,171,198,5
29571085,1711,2730,4294952106,5590,382,283,370,2345,16697,4294966333,4294967194,4294967237,4294967126,14374,4294963640,8185,179,211,4294967291
29577085,567,2740,4294952101,5698,322,262,367,2289,16708,4294966368,4294967148,4294967158,4294967151,14348,4294963574,8119,200,201,0
29583085,4294964940,2763,4294952064,5667,294,288,368,2234,16675,4294966369,4294967148,4294967131,4294967155,14359,4294963612,8116,185,227,4294967263
29589085,1722,2780,4294952025,5647,324,296,365,2251,16707,4294966426,4294967141,4294967140,4294967160,14385,4294963603,8035,183,202,4294967279
29595085,1712,2852,4294951995,5654,333,308,334,2276,16649,4294966375,4294967156,4294967137,4294967150,14325,4294963608,8087,191,203,4294967280
29601085,4294964938,2813,4294951913,5690,384,306,332,2261,16606,4294966495,4294967181,4294967076,4294967160,14362,4294963642,8108,190,204,4294967272
29607085,4294966128,2761,4294951946,5702,464,336,318,2264,16564,4294966566,4294967175,4294967079,4294967173,14382,4294963606,8081,179,216,4294967282
29613085,1734,2806,4294951940,5675,589,355,301,2356,16551,4294966484,4294967137,4294967124,4294967180,14401,4294963603,8086,180,210,4294967272
29619085,4294964938,2763,4294951986,5702,658,369,298,2290,16557,4294966454,4294967142,4294967163,4294967169,14352,4294963624,8041,179,206,4294967276
29625085,4294964939,2775,4294952065,5733,765,382,313,2282,16576,4294966452,4294967146,4294967173,4294967165,14382,4294963598,8121,174,203,4294967285
29631085,1706,2765,4294952092,5595,804,376,333,2345,16592,4294966459,4294967208,4294967148,4294967135,14382,4294963613,8086,180,201,4294967276
29637085,600,2737,4294952113,5674,811,354,349,2324,16598,4294966474,4294967256,4294967140,4294967114,14366,4294963634,8079,187,215,4294967276
29643085,4294964934,2754,4294952164,5676,820,354,344,2281,16611,4294966457,4294967295,4294967148,4294967132,14438,4294963644,8125,181,188,4294967262
29649085,1709,2786,4294952151,5747,786,333,333,2287,16604,4294966367,0,4294967176,4294967098,14405,4294963610,8135,163,215,4294967247
29655085,1732,2719,4294952172,5798,749,314,330,2237,16679,4294966389,37,4294967152,4294967055,14366,4294963618,8133,158,207,4294967262
29661085,4294964934,2783,4294952162,5764,655,317,315,2253,16696,4294966333,49,4294967104,4294967028,14397,4294963607,8107,149,244,4294967261
29667085,4294966078,2722,4294952161,5732,563,303,311,2214,16775,4294966290,49,4294967087,4294967009,14390,4294963609,8034,176,241,4294967258
29673085,1706,2743,4294952183,5683,458,298,312,2248,16795,4294966380,12,4294967066,4294967008,14383,4294963627,8096,152,260,4294967249
29679085,4294964929,2748,4294952150,5704,333,278,320,2301,16741,4294966343,4294967244,4294967087,4294967027,14411,4294963602,8075,154,234,4294967255
29685085,4294964925,2698,4294952112,5695,230,271,330,2272,16681,4294966443,4294967176,4294967116,4294967053,14385,4294963597,8097,148,245,4294967263
29691085,1728,2719,4294952071,5670,177,238,328,2290,16614,4294966372,4294967090,4294967109,4294967079,14366,4294963595,8120,153,252,4294967257
29697085,614,2704,4294952078,5690,156,244,312,2259,16625,4294966421,4294967067,4294967092,4294967074,14379,4294963583,8071,159,255,4294967243
29703085,4294964936,2737,4294952034,5697,206,223,324,2254,16669,4294966356,4294967091,4294967084,4294967049,14340,4294963594,8108,156,243,4294967238
29709085,1707,2766,4294952035,5701,307,206,329,2230,16696,4294966353,4294967180,4294967093,4294967038,14406,4294963649,8123,183,229,4294967248
29715085,1719,2766,4294951961,5645,400,218,316,2317,16649,4294966430,4294967236,4294967062,4294967048,14388,4294963614,8107,180,246,4294967228
29721085,4294964939,2810,4294952001,5681,532,218,342,2300,16630,4294966434,4294967275,4294967071,4294967049,14402,4294963664,8021,156,248,4294967245
29727085,4294966067,2783,4294952009,5722,655,223,335,2313,16637,4294966364,4294967288,4294967083,4294967014,14408,4294963595,8136,188,259,4294967255
29733085,1724,2807,4294952057,5612,772,273,331,2218,16681,4294966310,4294967278,4294967068,4294967016,14388,4294963631,8035,167,244,4294967229
29739085,4294964927,2782,4294952113,5602,861,330,328,2315,16626,4294966393,4294967239,4294967002,4294966975,14364,4294963578,8125,184,224,4294967234
29745085,4294964925,2759,4294952162,5563,909,369,382,2357,16594,4294966437,4294967196,4294966983,4294966918,14384,4294963587,8088,180,239,4294967252
29751085,1708,2730,4294952186,5623,942,405,416,2315,16613,4294966528,4294967167,4294967039,4294966922,14352,4294963560,8130,179,247,4294967261
29757085,608,2684,4294952227,5609,905,404,430,2219,16643,4294966413,4294967189,4294967077,4294966857,14351,4294963616,8154,167,247,4294967244
29763085,4294964922,2615,4294952240,5671,834,409,462,2107,16617,4294966445,4294967224,4294967023,4294966858,14377,4294963567,8141,168,235,4294967264
29769085,1713,2572,4294952221,5791,754,429,473,2161,16606,4294966478,4294967253,4294967029,4294966821,14302,4294963634,8138,170,229,4294967247
29775085,1718,2599,4294952147,5811,658,394,461,2172,16558,4294966578,4294967257,4294967072,4294966854,14362,4294963619,8160,155,235,4294967241
29781085,4294964945,2591,4294952108,5778,581,365,418,2097,16607,4294966603,4294967265,4294967143,4294966919,14386,4294963607,8056,183,235,4294967257
29787085,4294966090,2574,4294952048,5784,482,306,425,2078,16655,4294966570,4294967264,4294967176,4294966969,14366,4294963634,8107,169,229,4294967259
29793085,1707,2605,4294951984,5777,407,287,400,2125,16757,4294966533,4,4294967210,4294967016,14392,4294963705,8127,186,239,4294967267
29799085,4294964932,2688,4294952039,5763,357,262,397,2168,16800,4294966425,33,4294967238,4294967112,14367,4294963669,8085,179,225,4294967257
29805085,4294964929,2713,4294952010,5716,346,252,376,2096,16795,4294966357,4294967255,4294967255,4294967233,14348,4294963664,8088,194,211,4294967269
29811085,1713,2743,4294952024,5720,392,292,356,2174,16824,4294966213,4294967215,4294967243,4294967291,14346,4294963651,8088,199,221,4294967281
29817085,607,2735,4294952045,5684,449,330,365,2240,16805,4294966245,4294967217,4294967210,12,14421,4294963682,8062,195,205,4294967277
29823085,4294964924,2760,4294952079,5779,521,385,340,2344,16754,4294966313,4294967135,4294967221,55,14367,4294963622,8148,189,233,4294967282
29829085,1709,2711,4294952092,5704,606,455,385,2312,16738,4294966295,4294967076,4294967233,114,14392,4294963624,8146,187,227,8
29835085,1712,2672,4294952157,5667,676,483,402,2277,16689,4294966260,4294967023,4294967235,180,14385,4294963617,8124,186,209,17
29841085,4294964930,2646,4294952087,5697,721,441,425,2186,16642,4294966355,4294967036,4294967218,215,14334,4294963630,8117,181,207,30
29847085,4294966044,2590,4294952105,5753,732,416,420,2177,16672,4294966294,4294967042,4294967241,195,14377,4294963623,8058,177,246,17
29853085,1708,2623,4294952055,5722,706,385,403,2236,16658,4294966215,4294967063,4294967183,176,14383,4294963665,8110,171,229,20
29859085,4294964929,2663,4294952121,5628,652,361,383,2273,16725,4294966385,4294967105,4294967151,160,14396,4294963618,8128,170,213,39
29865085,4294964931,2708,4294952141,5720,560,341,415,2277,16690,4294966418,4294967143,4294967133,132,14386,4294963638,8065,159,230,43
29871085,1721,2682,4294952026,5811,516,357,394,2253,16656,4294966398,4294967161,4294967149,155,14361,4294963633,8031,181,238,30
29877085,684,2708,4294952021,5810,476,387,383,2222,16634,4294966480,4294967131,4294967124,120,14393,4294963626,8190,179,225,40
29883085,4294964944,2691,4294952027,5814,417,395,339,2261,16562,4294966457,4294967110,4294967165,143,14391,4294963621,8111,173,203,62
29889085,1702,2684,4294952057,5854,389,355,325,2187,16557,4294966441,4294967056,4294967154,120,14360,4294963637,8124,154,215,56
29895085,1717,2678,4294952037,5791,360,297,315,2170,16617,4294966542,4294967060,4294967164,112,14402,4294963672,8191,158,197,53
29901085,4294964937,2705,4294952039,5747,374,274,286,2266,16613,4294966493,4294967068,4294967148,76,14395,4294963657,8118,151,169,66
29907085,4294966047,2685,4294952060,5790,388,299,310,2257,16552,4294966587,4294967101,4294967176,56,14366,4294963624,8044,160,162,62
29913085,1718,2710,4294952087,5843,437,294,307,2271,16545,4294966543,4294967152,4294967203,33,14387,4294963600,8128,151,186,61
29919085,4294964934,2755,4294952072,5713,491,299,316,2256,16567,4294966434,4294967209,4294967213,7,14372,4294963631,8111,136,185,49
29925085,4294964933,2765,4294952075,5567,539,334,327,2261,16580,4294966396,4294967219,4294967177,4,14380,4294963630,8060,122,179,46
29931085,1723,2722,4294952123,5661,623,341,335,2303,16522,4294966350,4294967209,4294967167,4294967270,14382,4294963590,8060,99,192,56
29937085,565,2726,4294952044,5699,669,379,359,2339,16521,4294966528,4294967222,4294967177,4294967225,14394,4294963633,8079,117,206,48
29943085,4294964934,2685,4294952078,5712,687,387,349,2303,16570,4294966458,4294967256,4294967203,4294967162,14368,4294963573,8115,105,210,46
29949085,1712,2688,4294952136,5658,666,381,373,2230,16659,4294966361,4294967284,4294967186,4294967109,14348,4294963537,8071,104,226,34
29955085,1707,2625,4294952033,5718,657,380,375,2175,16650,4294966344,25,4294967158,4294967073,14362,4294963536,8131,108,216,18
29961085,4294964927,2625,4294952092,5763,654,385,356,2179,16646,4294966340,34,4294967092,4294967054,14350,4294963539,8012,102,241,34
29967085,4294966035,2607,4294952108,5736,601,371,380,2193,16640,4294966445,25,4294967006,4294967067,14347,4294963542,8098,103,218,27
29973085,1717,2607,4294952092,5722,572,344,346,2306,16637,4294966445,4294967273,4294967049,4294967092,14301,4294963553,8026,112,220,21
29979085,4294964941,2614,4294952102,5761,535,318,351,2253,16616,4294966425,4294967183,4294967108,4294967098,14363,4294963550,8019,115,214,9
29985085,4294964934,2637,4294952109,5722,505,294,344,2253,16715,4294966405,4294967178,4294967159,4294967132,14415,4294963588,8059,150,204,4294967282
29991085,1728,2671,4294952164,5747,445,257,334,2258,16749,4294966368,4294967209,4294967177,4294967116,14342,4294963533,8085,141,239,4294967288
29997085,620,2695,4294952152,5664,384,225,327,2214,16762,4294966377,4294967282,4294967198,4294967143,14364,4294963547,8071,126,227,21
30003085,4294964928,2730,4294952133,5648,360,268,342,2256,16694,4294966329,6,4294967125,4294967189,14344,4294963580,8051,149,212,4294967290
30009085,1714,2731,4294952138,5636,365,335,365,2315,16662,4294966349,4294967276,4294967124,4294967211,14391,4294963617,8009,174,234,4294967260
30015085,1718,2752,4294952091,5697,395,382,363,2238,16640,4294966462,4294967259,4294967143,4294967237,14359,4294963594,8029,182,221,4294967266
30021085,4294964917,2699,4294952075,5707,430,337,373,2247,16695,4294966363,4294967199,4294967187,4294967216,14397,4294963631,8055,169,239,4294967272
30027085,4294965977,2668,4294952008,5732,433,329,362,2259,16657,4294966311,4294967148,4294967201,4294967179,14317,4294963549,8065,189,257,4294967274
30033085,1716,2596,4294951980,5757,476,310,362,2253,16621,4294966378,4294967122,4294967213,4294967157,14374,4294963574,8066,171,245,4294967251
30039085,4294964925,2565,4294952055,5880,503,341,349,2302,16597,4294966395,4294967149,4294967218,4294967128,14404,4294963596,8045,203,263,4294967244
30045085,4294964936,2578,4294951998,5827,558,337,312,2218,16540,4294966473,4294967135,4294967207,4294967120,14380,4294963574,8031,195,279,4294967241
30051085,1707,2630,4294952047,5811,609,333,294,2256,16579,4294966485,4294967184,4294967168,4294967092,14437,4294963623,8042,163,280,4294967253
30057085,706,2626,4294951998,5777,648,344,283,2229,16613,4294966299,4294967255,4294967158,4294967063,14408,4294963559,8039,173,268,4294967234
30063085,4294964925,2637,4294952100,5700,641,343,252,2187,16700,4294966381,13,4294967088,4294967083,14385,4294963620,8121,166,284,4294967199
30069085,1710,2595,4294952122,5738,630,383,257,2254,16620,4294966469,8,4294967099,4294967095,14367,4294963604,8101,173,267,4294967196
30075085,1718,2630,4294952158,5647,590,402,252,2198,16615,4294966537,4294967258,4294967143,4294967078,14399,4294963556,8075,192,286,4294967215
30081085,4294964925,2599,4294952207,5585,558,433,257,2175,16671,4294966468,4294967249,4294967177,4294967086,14376,4294963603,8068,173,277,4294967202
30087085,4294965998,2537,4294952228,5626,529,453,259,2157,16742,4294966346,4294967244,4294967183,4294967084,14362,4294963568,8075,177,276,4294967213
30093085,1712,2522,4294952214,5618,485,442,309,2168,16804,4294966338,4294967248,4294967131,4294967089,14311,4294963615,8134,199,275,4294967211
30099085,4294964929,2482,4294952178,5675,435,412,354,2188,16790,4294966333,4294967241,4294967097,4294967099,14359,4294963587,8083,194,259,4294967220
30105085,4294964930,2522,4294952104,5715,388,378,387,2235,16708,4294966341,4294967228,4294967095,4294967145,14324,4294963602,8105,179,273,4294967208
30111085,1720,2545,4294952059,5780,371,320,402,2210,16730,4294966343,4294967197,4294967076,4294967183,14299,4294963572,8032,189,265,4294967217
30117085,657,2599,4294951985,5915,372,270,428,2280,16716,4294966300,4294967134,4294967141,4294967220,14388,4294963645,8153,197,255,4294967208
30123085,4294964934,2626,4294952007,5799,378,222,382,2233,16660,4294966299,4294967112,4294967205,4294967206,14378,4294963670,8132,209,242,4294967216
30129085,1728,2635,4294951953,5943,391,199,377,2233,16671,4294966285,4294967127,4294967206,4294967208,14343,4294963655,8114,189,260,4294967208
30135085,1717,2638,4294951956,5866,445,189,345,2220,16647,4294966360,4294967132,4294967159,4294967266,14408,4294963631,8140,201,240,4294967219
30141085,4294964938,2736,4294951975,5865,470,218,313,2261,16660,4294966427,4294967149,4294967149,4294967263,14339,4294963637,8107,180,261,4294967235
30147085,4294965935,2690,4294951983,5882,524,245,292,2260,16647,4294966419,4294967175,4294967173,4294967261,14344,4294963628,8093,181,270,4294967229
30153085,1707,2674,4294952039,5908,574,302,249,2187,16619,4294966396,4294967191,4294967190,4294967255,14349,4294963669,8148,185,266,4294967228
30159085,4294964928,2636,4294952065,5939,624,362,221,2230,16683,4294966324,4294967204,4294967155,4294967246,14349,4294963645,8210,202,253,4294967243
30165085,4294964938,2571,4294952094,5873,651,367,199,2239,16676,4294966344,4294967178,4294967142,4294967259,14395,4294963628,8104,195,264,4294967241
30171085,1710,2551,4294952134,5799,680,368,184,2257,16657,4294966422,4294967191,4294967132,4294967234,14392,4294963690,8098,189,259,4294967260
30177085,751,2500,4294952144,5802,664,314,191,2229,16650,4294966391,4294967179,4294967156,4294967228,14350,4294963679,8172,171,233,4294967277
30183085,4294964940,2516,4294952174,5850,573,281,196,2232,16671,4294966353,4294967199,4294967168,4294967215,14407,4294963654,8189,194,227,4294967263
30189085,1715,2505,4294952221,5728,498,245,200,2207,16653,4294966349,4294967200,4294967121,4294967224,14383,4294963700,8129,189,228,4294967271
30195085,1720,2538,4294952203,5685,371,206,211,2235,16637,4294966378,4294967186,4294967137,4294967206,14373,4294963643,8128,194,222,4294967293
30201085,4294964936,2582,4294952202,5706,276,182,213,2234,16651,4294966310,4294967199,4294967114,4294967206,14376,4294963623,8107,192,221,4294967295
30207085,4294965970,2583,4294952123,5677,172,161,238,2259,16591,4294966393,4294967181,4294967154,4294967176,14374,4294963651,8152,169,213,20
30213085,1705,2665,4294952068,5635,118,161,234,2278,16597,4294966355,4294967180,4294967143,4294967199,14354,4294963640,8139,179,213,24
30219085,4294964940,2648,4294952032,5695,79,145,224,2282,16616,4294966333,4294967188,4294967152,4294967178,14439,4294963654,8093,170,210,8
30225085,4294964918,2675,4294951980,5730,50,153,250,2191,16582,4294966436,4294967153,4294967146,4294967143,14346,4294963625,8051,174,186,26
30231085,1712,2687,4294951975,5709,120,156,225,2283,16584,4294966447,4294967190,4294967136,4294967103,14399,4294963663,8166,158,177,27
30237085,725,2679,4294951960,5800,203,172,222,2241,16567,4294966413,4294967219,4294967142,4294967108,14317,4294963630,8141,172,166,33
30243085,4294964936,2684,4294951989,5694,320,230,201,2248,16612,4294966456,4294967248,4294967143,4294967058,14382,4294963651,8076,166,184,38
30249085,1724,2663,4294952002,5716,425,279,221,2200,16622,4294966452,6,4294967109,4294967035,14372,4294963590,8068,163,145,33
30255085,1708,2660,4294952019,5715,561,318,212,2208,16704,4294966436,43,4294967119,4294967042,14364,4294963549,8114,162,137,44
30261085,4294964938,2650,4294952064,5764,684,345,227,2110,16711,4294966365,47,4294967035,4294967083,14346,4294963635,8161,145,162,47
30267085,4294965919,2605,4294952087,5712,772,358,230,2227,16730,4294966381,18,4294967066,4294967088,14312,4294963603,8105,156,147,30
30273085,1715,2544,4294952141,5674,845,360,251,2297,16701,4294966324,4294967271,4294967127,4294967108,14349,4294963600,8120,160,162,38
30279085,4294964939,2529,4294952197,5809,841,292,238,2228,16677,4294966337,4294967229,4294967153,4294967123,14323,4294963591,8024,142,160,42
30285085,4294964930,2539,4294952181,5769,796,292,244,2167,16707,4294966273,4294967205,4294967149,4294967120,14325,4294963614,8077,154,156,43
30291085,1713,2542,4294952159,5875,725,292,271,2169,16707,4294966367,4294967163,4294967121,4294967167,14357,4294963561,8043,178,165,33
30297085,789,2586,4294952131,5817,648,277,295,2210,16648,4294966349,4294967159,4294967145,4294967156,14378,4294963595,8113,166,150,36
30303085,4294964940,2591,4294952131,5846,550,249,271,2204,16694,4294966396,4294967151,4294967151,4294967189,14328,4294963600,8060,164,163,33
30309085,1717,2588,4294952124,5754,470,201,273,2231,16651,4294966281,4294967176,4294967161,4294967229,14364,4294963570,8129,178,174,20
30315085,1732,2602,4294952140,5897,385,158,286,2252,16633,4294966370,4294967173,4294967136,4294967225,14353,4294963573,8012,160,163,22
30321085,4294964925,2622,4294952084,5896,324,138,257,2252,16584,4294966406,4294967175,4294967171,4294967214,14393,4294963593,8154,190,191,16
30327085,4294965872,2679,4294952144,5922,290,122,230,2244,16628,4294966347,4294967182,4294967176,4294967245,14382,4294963554,8052,179,186,30
30333085,1705,2669,4294952091,5937,280,131,219,2211,16705,4294966402,4294967202,4294967143,4294967220,14423,4294963598,8096,177,194,13
30339085,4294964944,2639,4294952049,5815,312,167,200,2223,16622,4294966408,4294967212,4294967167,4294967230,14457,4294963590,7987,169,211,4294967293
30345085,4294964926,2680,4294952078,5781,342,217,208,2180,16639,4294966400,4294967207,4294967179,4294967225,14408,4294963617,8031,180,190,4294967288
30351085,1722,2576,4294952081,5846,379,220,236,2158,16609,4294966431,4294967185,4294967166,4294967253,14449,4294963615,7990,177,221,4294967288
30357085,782,2617,4294952114,5703,414,251,234,2228,16581,4294966380,4294967161,4294967182,4294967241,14399,4294963548,7986,191,216,4294967285
30363085,4294964924,2573,4294952106,5758,450,239,248,2188,16728,4294966384,4294967179,4294967174,4294967225,14474,4294963604,8043,188,230,4294967290
30369085,1715,2593,4294952131,5745,484,218,241,2177,16729,4294966338,4294967200,4294967155,4294967216,14432,4294963582,8042,187,235,4294967260
30375085,1731,2655,4294952186,5726,514,206,280,2220,16719,4294966439,4294967212,4294967154,4294967222,14405,4294963621,8041,202,255,4294967286
30381085,4294964932,2632,4294952114,5700,518,221,303,2233,16747,4294966349,4294967188,4294967174,4294967240,14386,4294963647,8036,199,263,4294967286
30387085,4294965859,2593,4294952078,5671,534,219,301,2215,16658,4294966386,4294967154,4294967158,4294967262,14427,4294963629,8113,200,248,4294967261
30393085,1718,2557,4294952047,5761,515,199,325,2183,16712,4294966338,4294967112,4294967169,4294967289,14402,4294963618,7991,213,250,4294967295
30399085,4294964964,2617,4294952032,5720,527,191,293,2235,16635,4294966290,4294967068,4294967150,4294967274,14361,4294963658,8046,193,287,4294967262
30405085,4294965016,2649,4294952084,5716,525,178,302,2277,16595,4294966431,4294967047,4294967134,4294967250,14411,4294963627,8114,211,260,4294967260
30411085,1706,2605,4294952038,5720,538,197,299,2291,16510,4294966470,4294967043,4294967162,4294967237,14439,4294963640,8061,174,271,4294967265
30417085,824,2590,4294952103,5768,546,213,272,2254,16563,4294966463,4294967079,4294967167,4294967208,14352,4294963662,8044,188,290,4294967251
30423085,4294964936,2619,4294952111,5728,567,216,279,2175,16525,4294966457,4294967125,4294967163,4294967198,14390,4294963634,8105,159,277,4294967260
30429085,1723,2587,4294952114,5767,586,251,294,2173,16636,4294966305,4294967200,4294967149,4294967145,14377,4294963645,8025,160,279,4294967237
30435085,1719,2591,4294952091,5660,591,256,287,2165,16619,4294966383,4294967273,4294967129,4294967124,14385,4294963668,8069,152,280,4294967244
30441085,4294964925,2583,4294952135,5697,593,248,295,2180,16606,4294966385,4294967293,4294967150,4294967124,14387,4294963630,8117,128,291,4294967242
30447085,4294965814,2598,4294952170,5788,595,249,259,2191,16603,4294966428,14,4294967193,4294967097,14395,4294963613,8107,117,322,4294967231
30453085,1724,2519,4294952205,5719,577,267,284,2123,16670,4294966427,22,4294967193,4294967111,14350,4294963624,8139,127,305,4294967258
30459085,4294964925,2556,4294952191,5756,532,288,282,2117,16722,4294966324,4294967281,4294967164,4294967094,14367,4294963630,8093,123,316,4294967260
30465085,4294964943,2503,4294952175,5668,494,300,308,2169,16780,4294966392,4294967261,4294967161,4294967095,14380,4294963608,8161,147,295,4294967271
30471085,1710,2515,4294952133,5651,440,293,341,2202,16796,4294966336,4294967262,4294967153,4294967119,14350,4294963607,8131,129,298,4294967273
30477085,747,2562,4294952161,5661,388,260,354,2185,16770,4294966355,4294967242,4294967155,4294967139,14369,4294963639,8151,117,300,4294967253
30483085,4294964927,2630,4294952174,5641,345,257,362,2193,16739,4294966370,4294967180,4294967163,4294967175,14345,4294963593,8065,116,291,4294967249
30489085,1728,2630,4294952108,5702,365,261,359,2204,16703,4294966297,4294967144,4294967160,4294967163,14392,4294963601,8114,123,277,4294967270
30495085,1716,2654,4294952080,5720,355,232,364,2186,16643,4294966424,4294967097,4294967195,4294967180,14402,4294963603,8124,119,275,4294967267
30501085,4294964955,2644,4294952073,5829,389,251,354,2192,16594,4294966458,4294967104,4294967190,4294967185,14333,4294963626,8168,136,258,4294967252
30507085,4294965853,2617,4294952048,5890,444,252,382,2237,16594,4294966413,4294967121,4294967200,4294967191,14391,4294963622,8127,114,263,4294967257
30513085,1713,2646,4294951936,5902,534,242,367,2232,16609,4294966412,4294967156,4294967209,4294967216,14400,4294963593,8132,138,254,4294967275
30519085,4294964932,2660,4294952018,5775,613,207,352,2176,16559,4294966353,4294967223,4294967206,4294967197,14402,4294963618,8119,134,252,4294967260
30525085,4294964940,2657,4294952008,5882,637,206,331,2157,16583,4294966340,4294967244,4294967205,4294967203,14366,4294963609,8175,131,271,4294967270
30531085,1730,2670,4294952030,5788,689,245,317,2235,16603,4294966407,4294967272,4294967202,4294967237,14362,4294963603,8116,132,251,4294967263
30537085,823,2602,4294952054,5822,740,281,298,2246,16677,4294966408,4294967280,4294967214,4294967236,14326,4294963591,8144,135,241,4294967275
30543085,4294964921,2593,4294952092,5785,742,341,301,2209,16715,4294966352,4294967291,4294967168,4294967217,14349,4294963598,8152,132,244,4294967278
30549085,1711,2555,4294952117,5772,732,337,280,2164,16683,4294966287,6,4294967076,4294967224,14358,4294963613,8186,139,247,4294967283
30555085,1722,2512,4294952171,5773,692,307,273,2238,16775,4294966315,4294967282,4294967053,4294967228,14349,4294963594,8159,144,255,4294967281
30561085,4294964942,2534,4294952172,5741,622,297,248,2215,16683,4294966273,4294967192,4294967142,4294967200,14367,4294963666,8180,134,228,4294967290
30567085,4294965820,2537,4294952157,5697,531,237,265,2209,16682,4294966276,4294967153,4294967150,4294967213,14326,4294963616,8102,130,236,4294967268
30573085,1717,2552,4294952103,5698,443,245,266,2220,16606,4294966379,4294967110,4294967143,4294967211,14348,4294963621,8141,142,229,4294967294
30579085,4294964927,2515,4294952109,5754,366,195,281,2226,16553,4294966426,4294967089,4294967131,4294967181,14361,4294963563,8128,139,214,4294967284
30585085,4294964921,2585,4294952077,5728,312,198,245,2254,16545,4294966383,4294967113,4294967151,4294967136,14405,4294963598,8171,164,218,4
30591085,1707,2563,4294952056,5790,271,195,238,2170,16639,4294966348,4294967177,4294967149,4294967095,14387,4294963572,8095,148,219,4294967275
30597085,874,2559,4294952025,5761,285,198,223,2209,16608,4294966312,4294967259,4294967114,4294967092,14356,4294963594,8126,144,212,4294967278
30603085,4294964945,2568,4294952022,5798,276,203,200,2254,16624,4294966417,18,4294967125,4294967081,14346,4294963620,8121,133,208,4294967275
30609085,1715,2539,4294951981,5769,302,181,190,2198,16631,4294966431,54,4294967168,4294967097,14351,4294963596,8109,158,204,2
30615085,1704,2588,4294951967,5732,339,162,177,2141,16652,4294966437,42,4294967129,4294967138,14322,4294963618,8101,137,194,4294967268
30621085,4294964922,2628,4294952005,5749,378,195,170,2149,16693,4294966301,12,4294967071,4294967129,14386,4294963561,8110,154,188,4294967278
30627085,4294965807,2668,4294951975,5800,443,214,131,2202,16695,4294966263,4294967288,4294967143,4294967119,14379,4294963556,8116,181,203,4294967286
30633085,1717,2609,4294952049,5797,499,271,118,2200,16749,4294966223,4294967270,4294967127,4294967152,14399,4294963588,8087,157,203,4294967276
30639085,4294964918,2585,4294952056,5738,526,299,90,2275,16766,4294966288,4294967229,4294967103,4294967173,14397,4294963590,8166,167,197,4294967254
30645085,4294964923,2626,4294952070,5738,555,270,93,2242,16742,4294966296,4294967204,4294967155,4294967196,14332,4294963626,8056,175,202,4294967274
30651085,1716,2596,4294952063,5645,533,275,83,2220,16730,4294966344,4294967188,4294967167,4294967216,14370,4294963604,8163,169,217,4294967269
30657085,916,2611,4294952106,5707,518,271,82,2134,16702,4294966251,4294967166,4294967144,4294967207,14370,4294963590,8083,169,218,4294967269
30663085,4294964931,2604,4294952165,5760,481,260,116,2165,16700,4294966350,4294967131,4294967117,4294967223,14369,4294963604,8036,174,218,4294967260
30669085,1716,2595,4294952194,5755,417,229,110,2233,16667,4294966305,4294967105,4294967120,4294967263,14335,4294963630,8084,182,233,4294967276
30675085,1728,2652,4294952251,5813,348,226,87,2225,16637,4294966397,4294967117,4294967140,4294967233,14401,4294963597,8052,173,223,4294967271
30681085,4294964913,2639,4294952164,5789,277,228,100,2178,16647,4294966330,4294967146,4294967169,4294967236,14418,4294963635,8137,183,219,4294967255
30687085,4294965779,2673,4294952172,5771,239,235,129,2149,16668,4294966294,4294967165,4294967143,4294967255,14423,4294963638,8059,168,219,4294967258
30693085,1720,2631,4294952118,5895,213,243,141,2196,16651,4294966375,4294967153,4294967132,4294967284,14422,4294963625,8052,182,237,4294967260
30699085,4294964942,2581,4294952119,5796,231,239,154,2221,16549,4294966371,4294967165,4294967138,4294967279,14385,4294963617,7995,179,239,4294967281
30705085,4294964931,2576,4294952091,5815,211,213,152,2199,16618,4294966436,4294967176,4294967162,4294967265,14432,4294963647,8058,184,242,4294967272
30711085,1715,2630,4294952058,5826,218,155,153,2184,16647,4294966436,4294967173,4294967166,4294967267,14369,4294963594,8080,174,229,4294967264
30717085,874,2653,4294952065,5769,248,155,132,2147,16693,4294966418,4294967169,4294967160,4294967247,14424,4294963644,8059,177,233,4294967257
30723085,4294964940,2624,4294952106,5822,311,150,110,2165,16692,4294966313,4294967208,4294967131,4294967218,14421,4294963589,8100,195,261,4294967269
30729085,1716,2644,4294952062,5794,316,170,148,2199,16718,4294966419,4294967212,4294967136,4294967237,14396,4294963636,8029,162,263,4294967274
30735085,1727,2581,4294952040,5814,378,196,120,2190,16700,4294966312,4294967217,4294967110,4294967230,14400,4294963588,8092,167,252,4294967266
30741085,4294964932,2572,4294952095,5791,441,211,126,2206,16669,4294966354,4294967180,4294967082,4294967226,14369,4294963607,8023,177,250,4294967262
30747085,4294965769,2628,4294952114,5747,496,189,145,2230,16618,4294966354,4294967147,4294967105,4294967201,14401,4294963617,8099,173,261,4294967259
30753085,1722,2569,4294952099,5704,509,191,155,2196,16578,4294966383,4294967118,4294967107,4294967219,14369,4294963567,8115,167,275,4294967263
30759085,4294964937,2582,4294952180,5658,539,220,161,2170,16591,4294966384,4294967082,4294967099,4294967166,14351,4294963601,8137,164,245,4294967278
30765085,4294964919,2579,4294952160,5665,550,241,169,2130,16649,4294966341,4294967114,4294967121,4294967165,14374,4294963561,8050,155,258,4294967251
30771085,1732,2551,4294952179,5699,556,271,222,2162,16683,4294966447,4294967177,4294967119,4294967168,14374,4294963590,8039,162,259,4294967271
30777085,878,2569,4294952253,5744,564,269,244,2236,16682,4294966458,4294967236,4294967161,4294967138,14362,4294963573,8060,164,259,4294967260
30783085,4294964941,2634,4294952249,5699,533,291,294,2178,16672,4294966500,4294967286,4294967178,4294967182,14337,4294963606,8069,149,248,4294967255
30789085,1717,2609,4294952220,5607,500,283,315,2151,16707,4294966397,4294967278,4294967190,4294967224,14378,4294963601,8184,165,254,4294967267
30795085,1721,2594,4294952135,5727,464,269,358,2166,16724,4294966402,4294967256,4294967204,4294967254,14361,4294963581,8142,153,258,4294967264
30801085,4294964938,2625,4294952182,5776,409,212,344,2155,16756,4294966306,4294967195,4294967197,6,14376,4294963603,8111,141,239,4294967266
30807085,4294965831,2620,4294952063,5878,362,167,337,2180,16785,4294966338,4294967146,4294967202,0,14346,4294963668,8114,148,243,4294967257
30813085,1720,2614,4294952040,5877,310,148,313,2187,16688,4294966346,4294967123,4294967201,28,14398,4294963595,8173,152,254,4294967254
30819085,4294964929,2624,4294951970,5928,291,126,279,2239,16678,4294966314,4294967093,4294967200,33,14377,4294963587,8152,135,244,4294967235
30825085,4294964939,2679,4294952005,5920,305,132,279,2210,16744,4294966223,4294967106,4294967175,42,14390,4294963628,8108,150,238,4294967249
30831085,1712,2711,4294951952,5798,303,109,227,2237,16722,4294966306,4294967108,4294967162,47,14383,4294963652,8118,136,262,4294967274
30837085,781,2685,4294951990,5807,344,111,209,2255,16709,4294966261,4294967132,4294967130,46,14350,4294963629,8121,135,249,4294967272
30843085,4294964934,2705,4294952030,5777,395,125,167,2249,16744,4294966357,4294967148,4294967125,41,14391,4294963655,8142,144,258,4294967267
30849085,1704,2657,4294952049,5692,458,185,146,2271,16672,4294966346,4294967131,4294967118,47,14374,4294963660,8082,144,271,4294967257
30855085,1719,2663,4294952090,5804,523,215,140,2250,16638,4294966394,4294967105,4294967134,53,14402,4294963680,8093,147,270,4294967262
30861085,4294964940,2625,4294952177,5675,532,250,148,2230,16558,4294966315,4294967039,4294967158,76,14419,4294963640,8062,138,259,4294967256
30867085,4294965718,2623,4294952115,5680,511,273,174,2261,16614,4294966420,4294967014,4294967168,59,14404,4294963664,8060,141,267,4294967261
30873085,1721,2588,4294952120,5663,523,304,188,2245,16631,4294966438,4294967033,4294967198,65,14410,4294963647,8088,129,255,4294967265
30879085,4294964920,2561,4294952142,5634,517,289,216,2175,16702,4294966343,4294967048,4294967222,71,14376,4294963641,8116,157,246,4294967279
30885085,4294964921,2550,4294952136,5636,491,245,203,2184,16680,4294966355,4294967079,4294967219,66,14407,4294963678,8140,149,229,2
30891085,1720,2550,4294952196,5596,433,185,207,2190,16683,4294966422,4294967101,4294967212,84,14387,4294963646,8060,143,255,4294967284
30897085,960,2589,4294952114,5594,366,145,229,2177,16578,4294966419,4294967134,4294967178,54,14379,4294963578,8100,168,246,4294967290
30903085,4294964931,2668,4294952092,5631,302,145,237,2180,16647,4294966447,4294967191,4294967167,30,14321,4294963617,8044,167,243,8
30909085,1723,2664,4294952093,5612,225,158,226,2215,16705,4294966416,4294967172,4294967142,24,14366,4294963635,8117,136,242,2
30915085,1729,2702,4294952012,5684,198,186,230,2257,16743,4294966384,4294967153,4294967149,12,14362,4294963663,8130,137,229,6
30921085,4294964933,2680,4294951996,5798,207,210,216,2267,16644,4294966414,4294967102,4294967150,32,14366,4294963646,8069,145,238,7
30927085,4294965752,2692,4294951915,5771,247,230,192,2293,16565,4294966487,4294967067,4294967154,40,14391,4294963578,8130,145,235,28
30933085,1704,2706,4294951909,5712,319,255,184,2262,16510,4294966507,4294967028,4294967171,19,14388,4294963604,8115,132,252,4
30939085,4294964931,2671,4294951983,5728,387,254,168,2241,16598,4294966488,4294967031,4294967179,4,14382,4294963598,8030,163,249,9
30945085,4294964920,2697,4294951980,5744,483,279,160,2168,16582,4294966366,4294967063,4294967165,4294967274,14363,4294963611,8149,135,238,4294967294
30951085,1725,2599,4294952013,5730,587,312,151,2234,16592,4294966469,4294967125,4294967140,4294967253,14389,4294963632,8119,132,240,4294967292
30957085,909,2556,4294952085,5628,672,345,167,2242,16575,4294966478,4294967196,4294967153,4294967231,14380,4294963620,8087,147,234,4294967287
30963085,4294964917,2559,4294952035,5698,739,372,110,2222,16657,4294966435,4294967227,4294967166,4294967257,14379,4294963584,8087,144,231,4294967293
30969085,1730,2596,4294952116,5696,758,393,130,2155,16704,4294966400,4294967275,4294967148,4294967234,14416,4294963637,8068,152,224,19
30975085,1720,2570,4294952093,5646,736,354,14367,4294963616,8144,147,220,4294967281
31983085,4294964926,2627,4294952110,5622,536,277,273,2285,16582,4294966504,4294967210,4294967126,4294967148,14372,4294963630,8136,168,211,4294967279
31989085,1705,2637,4294952138,5634,469,250,313,2213,16548,4294966546,4294967234,4294967194,4294967114,14300,4294963627,8117,159,230,4294967274
31995085,1724,2677,4294952131,5635,420,245,298,2211,16641,4294966463,4294967245,4294967215,4294967144,14370,4294963591,8101,153,234,4294967287
32001085,4294964926,2655,4294952095,5705,394,244,299,2171,16656,4294966377,4294967231,4294967194,4294967160,14359,4294963634,8128,143,221,4294967268
32007085,4294965353,2682,4294952069,5732,376,216,300,2202,16737,4294966318,4294967230,4294967165,4294967167,14407,4294963601,8085,132,235,4294967262
32013085,1726,2637,4294952056,5752,381,231,276,2258,16667,4294966371,4294967232,4294967166,4294967166,14391,4294963623,8084,138,231,4294967283
32019085,4294964938,2628,4294952118,5882,414,241,285,2255,16654,4294966436,4294967228,4294967180,4294967165,14411,4294963614,8061,133,245,4294967254
32025085,4294964933,2636,4294952090,5806,449,261,263,2159,16661,4294966274,4294967211,4294967183,4294967177,14391,4294963605,8076,130,240,4294967275
32031085,1715,2653,4294952086,5816,498,256,277,2180,16757,4294966354,4294967213,4294967149,4294967214,14394,4294963616,8046,156,253,4294967267
32037085,1265,2701,4294952070,5790,558,240,272,2181,16778,4294966272,4294967210,4294967132,4294967169,14442,4294963606,8084,136,246,4294967275
32043085,4294964941,2690,4294952078,5758,594,259,265,2206,16701,4294966389,4294967205,4294967121,4294967190,14403,4294963601,8088,144,225,4294967269
32049085,1711,2692,4294952087,5682,611,252,276,2221,16658,4294966388,4294967178,4294967121,4294967203,14400,4294963625,8001,128,232,4294967266
32055085,1714,2718,4294952150,5669,609,291,294,2183,16629,4294966412,4294967148,4294967142,4294967220,14413,4294963563,8009,143,249,4294967273
32061085,4294964942,2691,4294952190,5702,601,285,286,2237,16642,4294966321,4294967122,4294967113,4294967212,14402,4294963603,8143,156,235,4294967268
32067085,4294965339,2658,4294952181,5787,561,308,304,2240,16631,4294966463,4294967099,4294967117,4294967227,14411,4294963640,8078,151,235,4294967266
32073085,1718,2676,4294952130,5727,508,297,313,2218,16666,4294966356,4294967132,4294967121,4294967218,14383,4294963583,8066,138,249,4294967260
32079085,4294964942,2626,4294952104,5735,444,223,310,2217,16554,4294966455,4294967119,4294967144,4294967206,14356,4294963590,8168,155,258,4294967278
32085085,4294964926,2616,4294952101,5758,418,193,312,2230,16499,4294966399,4294967163,4294967160,4294967205,14361,4294963645,8033,155,271,4294967284
32091085,1707,2703,4294952102,5627,415,187,310,2222,16638,4294966367,4294967212,4294967174,4294967184,14351,4294963631,8134,150,257,4294967267
32097085,1253,2663,4294952080,5772,398,202,306,2196,16704,4294966350,4294967255,4294967139,4294967155,14356,4294963607,8153,153,261,4294967285
32103085,4294964945,2682,4294952058,5769,410,200,310,2214,16701,4294966372,4294967292,4294967134,4294967143,14396,4294963597,8137,170,248,4294967267
32109085,1722,2691,4294952078,5775,423,245,292,2240,16685,4294966452,4294967260,4294967117,4294967161,14374,4294963639,8116,157,255,4294967265
32115085,1712,2720,4294952069,5592,474,257,304,2217,16584,4294966420,4294967196,4294967166,4294967172,14445,4294963597,8077,179,233,4294967271
32121085,4294964942,2653,4294952098,5729,525,284,318,2179,16674,4294966478,4294967173,4294967194,4294967164,14410,4294963608,8125,160,233,4294967267
32127085,4294965212,2610,4294952115,5644,542,297,330,2164,16676,4294966341,4294967150,4294967170,4294967160,14416,4294963651,8073,171,248,4294967259
32133085,1704,2587,4294952130,5653,584,296,345,2145,16665,4294966338,4294967173,4294967133,4294967143,14431,4294963635,8157,180,230,4294967265
32139085,4294964933,2594,4294952123,5662,612,326,355,2230,16632,4294966398,4294967204,4294967145,4294967127,14399,4294963617,8080,161,242,4294967263
32145085,4294964934,2646,4294952101,5695,626,330,354,2237,16606,4294966449,4294967246,4294967178,4294967119,14375,4294963631,8077,148,246,4294967267
32151085,1719,2650,4294952132,5727,615,343,389,2166,16640,4294966463,4294967231,4294967145,4294967144,14359,4294963582,8094,173,247,4294967263
32157085,1390,2655,4294952101,5707,616,324,402,2148,16715,4294966407,4294967260,4294967163,4294967151,14374,4294963659,8113,149,225,4294967261
32163085,4294964939,2610,4294952089,5708,604,304,433,2158,16749,4294966331,4294967276,4294967152,4294967163,14359,4294963605,8132,165,220,4294967268
32169085,1720,2654,4294952019,5819,640,283,395,2122,16717,4294966360,4294967249,4294967121,4294967172,14372,4294963610,8158,150,239,4294967290
32175085,1726,2611,4294952048,5800,648,194,397,2180,16706,4294966393,4294967248,4294967018,4294967195,14359,4294963624,8140,154,226,4294967262
32181085,4294964936,2631,4294952050,5813,583,92,363,2279,16676,4294966391,4294967233,4294967071,4294967205,14393,4294963635,8111,159,213,4294967270
32187085,4294965301,2712,4294952066,5832,513,125,351,2285,16689,4294966288,4294967176,4294967266,4294967210,14374,4294963582,8122,153,228,4294967265
32193085,1712,2720,4294952048,5904,495,191,322,2106,16678,4294966289,4294967165,4294967241,4294967217,14372,4294963629,8058,178,238,4294967263
32199085,4294964924,2727,4294952029,5904,494,262,292,2150,16711,4294966243,4294967154,4294967103,4294967232,14396,4294963619,8083,180,223,4294967265
32205085,4294964925,2685,4294952043,5883,493,272,242,2212,16657,4294966379,4294967123,4294967134,4294967215,14358,4294963611,8135,186,239,4294967262
32211085,1712,2692,4294952052,5852,497,247,241,2164,16625,4294966296,4294967148,4294967205,4294967234,14330,4294963612,8053,162,220,4294967270
32217085,1303,2652,4294952089,5813,492,236,228,2154,16629,4294966413,4294967137,4294967188,4294967264,14388,4294963613,8078,192,230,4294967282
32223085,4294964936,2633,4294952083,5695,462,213,222,2172,16660,4294966363,4294967162,4294967145,4294967235,14361,4294963606,8082,177,248,4294967265
32229085,1730,2621,4294952120,5753,468,206,195,2230,16635,4294966423,4294967183,4294967155,4294967222,14372,4294963639,8105,171,219,4294967272
32235085,1713,2620,4294952103,5686,490,210,201,2232,16643,4294966431,4294967179,4294967151,4294967214,14388,4294963615,8123,184,233,4294967277
32241085,4294964939,2570,4294952126,5674,505,238,216,2221,16559,4294966460,4294967193,4294967173,4294967175,14414,4294963651,8082,176,230,4294967286
32247085,4294965231,2605,4294952155,5689,541,239,233,2144,16607,4294966335,4294967232,4294967180,4294967136,14373,4294963632,8094,184,241,4294967272
32253085,1714,2592,4294952197,5599,533,277,258,2151,16620,4294966334,4294967230,4294967146,4294967160,14392,4294963653,8092,172,205,4294967283
32259085,4294964935,2628,4294952184,5690,522,248,274,2170,16667,4294966321,4294967236,4294967129,4294967153,14390,4294963594,8083,170,221,4294967275
32265085,4294964929,2629,4294952128,5666,508,246,304,2244,16633,4294966366,4294967236,4294967141,4294967143,14369,4294963671,8154,163,220,9
32271085,1707,2673,4294952103,5779,458,226,278,2219,16663,4294966375,4294967224,4294967158,4294967143,14390,4294963610,8076,145,213,4294967288
32277085,1393,2615,4294952087,5838,443,201,269,2232,16664,4294966249,4294967213,4294967144,4294967129,14403,4294963616,8043,160,245,4294967282
32283085,4294964928,2723,4294952058,5860,455,211,269,2125,16696,4294966306,4294967205,4294967094,4294967146,14431,4294963632,8095,153,255,4294967291
32289085,1714,2758,4294952033,5736,434,218,261,2193,16643,4294966405,4294967231,4294967074,4294967135,14431,4294963605,8173,142,260,4294967278
32295085,1714,2682,4294952033,5912,386,229,244,2214,16618,4294966428,4294967208,4294967044,4294967140,14447,4294963623,8100,151,246,4294967276
32301085,4294964938,2742,4294952029,5818,385,208,219,2266,16616,4294966360,4294967188,4294967146,4294967137,14409,4294963583,8049,146,222,4294967292
32307085,4294965164,2704,4294952072,5823,380,202,196,2216,16636,4294966468,4294967209,4294967194,4294967154,14373,4294963591,8112,140,241,4294967270
32313085,1724,2700,4294952061,5799,400,200,176,2253,16655,4294966368,4294967228,4294967156,4294967150,14445,4294963590,8083,135,224,4294967274
32319085,4294964938,2680,4294952074,5778,416,188,181,2175,16682,4294966359,4294967248,4294967141,4294967145,14367,4294963565,8102,142,238,4294967291
32325085,4294964937,2669,4294952103,5742,430,224,187,2197,16657,4294966328,4294967257,4294967127,4294967156,14332,4294963595,8122,131,241,4294967294
32331085,1719,2627,4294952107,5660,456,244,156,2226,16640,4294966328,4294967249,4294967145,4294967148,14355,4294963631,8073,139,250,8
32337085,1388,2642,4294952145,5689,479,246,170,2219,16686,4294966383,4294967256,4294967102,4294967163,14304,4294963589,8083,138,240,4294967280
32343085,4294964940,2636,4294952135,5682,492,247,214,2199,16670,4294966273,4294967218,4294967139,4294967135,14354,4294963583,8032,152,212,4294967274
32349085,1718,2592,4294952137,5708,498,250,187,2169,16711,4294966269,4294967202,4294967113,4294967144,14398,4294963626,8111,142,245,4294967280
32355085,1722,2610,4294952182,5718,483,242,223,2183,16735,4294966255,4294967194,4294967129,4294967153,14362,4294963588,8086,153,215,4294967267
32361085,4294964928,2583,4294952151,5693,475,203,245,2168,16710,4294966242,4294967192,4294967141,4294967148,14319,4294963596,8069,135,229,4294967260
32367085,4294965104,2575,4294952116,5694,392,199,235,2168,16684,4294966285,4294967198,4294967150,4294967150,14420,4294963613,8103,151,207,4294967258
32373085,1720,2614,4294952098,5681,329,172,245,2204,16677,4294966286,4294967167,4294967137,4294967164,14399,4294963610,8093,162,213,4294967250
32379085,4294964925,2604,4294952063,5722,278,176,224,2137,16699,4294966336,4294967160,4294967138,4294967161,14351,4294963567,8083,154,222,4294967248
32385085,4294964928,2654,4294952010,5781,248,166,233,2162,16689,4294966355,4294967166,4294967124,4294967163,14371,4294963591,8092,162,237,4294967253
32391085,1705,2650,4294952038,5693,216,170,225,2190,16642,4294966299,4294967149,4294967127,4294967166,14381,4294963554,8077,168,248,4294967243
32397085,1409,2657,4294952004,5684,220,153,203,2223,16659,4294966376,4294967169,4294967143,4294967172,14418,4294963573,8040,153,239,4294967249
32403085,4294964935,2684,4294952026,5714,270,175,193,2232,16600,4294966387,4294967159,4294967142,4294967168,14375,4294963627,8044,153,243,4294967229
32409085,1719,2651,4294952063,5642,327,218,184,2184,16639,4294966366,4294967214,4294967148,4294967175,14380,4294963621,8060,167,263,4294967256
32415085,1725,2670,4294952015,5720,401,253,214,2187,16628,4294966379,4294967235,4294967150,4294967181,14411,4294963626,8126,169,256,4294967254
32421085,4294964932,2650,4294952071,5715,523,279,211,2137,16650,4294966370,4294967237,4294967140,4294967195,14408,4294963595,8114,193,252,4294967240
32427085,4294965077,2604,4294952099,5698,607,326,243,2186,16660,4294966412,4294967200,4294967144,4294967180,14411,4294963659,8079,183,266,4294967244
32433085,1709,2586,4294952160,5721,711,332,270,2188,16644,4294966452,4294967211,4294967170,4294967175,14405,4294963606,8084,177,261,4294967247
32439085,4294964939,2602,4294952180,5693,773,334,291,2188,16687,4294966391,4294967194,4294967158,4294967198,14439,4294963658,8050,174,260,4294967253
32445085,4294964936,2577,4294952179,5708,768,292,308,2195,16656,4294966360,4294967184,4294967165,4294967194,14384,4294963609,8083,190,264,4294967274
32451085,1704,2602,4294952234,5815,767,261,322,2195,16638,4294966312,4294967167,4294967165,4294967191,14355,4294963637,8010,180,274,4294967267
32457085,1432,2636,4294952187,5734,725,278,326,2156,16614,4294966374,4294967170,4294967139,4294967184,14397,4294963628,8059,194,261,4294967248
32463085,4294964930,2605,4294952167,5760,656,259,336,2200,16660,4294966398,4294967169,4294967131,4294967171,14390,4294963676,8040,198,262,4294967271
32469085,1708,2703,4294952162,5770,561,212,339,2185,16667,4294966372,4294967176,4294967139,4294967161,14371,4294963680,8032,183,236,4294967271
32475085,1720,2665,4294952153,5719,418,207,323,2167,16654,4294966321,4294967202,4294967113,4294967155,14370,4294963611,8072,190,260,4294967261
32481085,4294964926,2711,4294952125,5703,306,189,332,2144,16687,4294966341,4294967222,4294967127,4294967146,14441,4294963612,8054,168,237,4294967255
32487085,4294965069,2640,4294952084,5756,231,154,324,2164,16740,4294966393,4294967250,4294967142,4294967138,14392,4294963667,8079,173,229,4294967264
32493085,1723,2688,4294952075,5793,172,155,299,2152,16736,4294966416,4294967260,4294967136,4294967176,14395,4294963662,8047,160,261,4294967269
32499085,4294964955,2727,4294952056,5725,204,161,287,2190,16707,4294966352,4294967242,4294967147,4294967190,14393,4294963677,8120,168,231,4294967272
32505085,4294964921,2653,4294952013,5713,223,174,270,2199,16654,4294966347,4294967172,4294967140,4294967208,14388,4294963629,8182,154,260,4294967274
32511085,1711,2621,4294952009,5776,287,210,275,2161,16623,4294966409,4294967112,4294967165,4294967231,14422,4294963562,8112,159,243,4294967270
32517085,1532,2605,4294952018,5648,383,228,277,2138,16618,4294966387,4294967090,4294967165,4294967211,14299,4294963640,8061,167,275,4294967281
32523085,4294964946,2574,4294952048,5684,511,227,308,2114,16657,4294966306,4294967124,4294967157,4294967192,14360,4294963627,8110,151,230,4294967284
32529085,1712,2641,4294952084,5633,616,243,316,2146,16645,4294966291,4294967178,4294967118,4294967148,14377,4294963664,8083,132,245,4294967272
32535085,1723,2593,4294952087,5660,698,271,334,2150,16636,4294966393,4294967250,4294967113,4294967137,14371,4294963608,8114,147,268,4294967268
32541085,4294964942,2622,4294952104,5694,784,277,324,2185,16614,4294966326,4294967277,4294967138,4294967145,14374,4294963583,8138,131,238,4294967282
32547085,4294965027,2601,4294952056,5724,835,315,351,2184,16594,4294966346,4294967258,4294967139,4294967133,14359,4294963615,8135,147,241,4294967283
32553085,1719,2577,4294952103,5728,823,320,349,2204,16600,4294966405,4294967268,4294967168,4294967132,14365,4294963577,8109,138,243,4294967279
32559085,4294964936,2624,4294952099,5744,795,307,366,2189,16699,4294966340,4294967237,4294967166,4294967155,14366,4294963608,8130,142,213,4294967287
32565085,4294964932,2608,4294952164,5717,721,271,330,2148,16681,4294966330,4294967228,4294967146,4294967129,14371,4294963642,8111,141,242,4294967292
32571085,1711,2611,4294952122,5686,568,255,339,2154,16701,4294966349,4294967212,4294967119,4294967163,14322,4294963618,8071,149,218,4294967290
32577085,1398,2654,4294952134,5780,465,223,306,2191,16701,4294966378,4294967224,4294967070,4294967176,14376,4294963632,8059,149,238,4294967269
32583085,4294964938,2685,4294952114,5810,366,207,297,2185,16723,4294966335,4294967208,4294967118,4294967188,14404,4294963620,8083,154,228,4294967282
32589085,1705,2659,4294952121,5778,279,207,277,2219,16727,4294966313,4294967181,4294967156,4294967198,14348,4294963612,8077,159,229,3
32595085,1724,2686,4294952064,5822,256,204,279,2218,16663,4294966311,4294967151,4294967170,4294967213,14395,4294963605,8153,149,238,4294967287
32601085,4294964934,2672,4294952094,5734,211,212,243,2158,16650,4294966342,4294967149,4294967150,4294967215,14364,4294963624,8094,157,254,4294967275
32607085,4294965011,2588,4294952039,5660,227,203,248,2114,16657,4294966368,4294967136,4294967124,4294967210,14385,4294963668,8080,148,217,4294967283
32613085,1728,2582,4294951972,5810,258,208,289,2147,16615,4294966408,4294967140,4294967162,4294967216,14375,4294963666,8118,167,225,2
32619085,4294964933,2604,4294951993,5574,355,206,266,2182,16655,4294966422,4294967169,4294967155,4294967213,14394,4294963601,8081,161,226,4294967288
32625085,4294964936,2637,4294952039,5688,426,225,266,2202,16653,4294966408,4294967207,4294967156,4294967176,14440,4294963595,8127,158,217,4294967266
32631085,1701,2622,4294952016,5671,514,266,279,2165,16685,4294966238,4294967259,4294967139,4294967174,14385,4294963653,8074,161,221,4294967288
32637085,1510,2633,4294952112,5677,612,269,275,2137,16701,4294966360,4294967257,4294967143,4294967177,14385,4294963593,8137,168,224,4294967269
32643085,4294964922,2616,4294952105,5662,694,297,286,2135,16741,4294966414,4294967225,4294967134,4294967167,14347,4294963595,8116,157,229,4294967288
32649085,1725,2616,4294952101,5644,735,305,280,2225,16687,4294966346,4294967245,4294967152,4294967182,14361,4294963566,8073,152,244,4294967292
32655085,1716,2639,4294952063,5742,762,294,256,2155,16749,4294966309,4294967192,4294967148,4294967183,14394,4294963605,8118,164,224,4294967286
32661085,4294964911,2602,4294952088,5715,742,302,288,2111,16738,4294966263,4294967171,4294967114,4294967184,14354,4294963583,8129,161,212,4
32667085,4294964937,2623,4294952126,5654,682,289,273,2163,16717,4294966295,4294967163,4294967095,4294967195,14443,4294963622,8095,159,243,4294967284
32673085,1717,2610,4294952141,5731,609,282,290,2158,16734,4294966345,4294967169,4294967121,4294967195,14404,4294963630,8112,149,253,4294967266
32679085,4294964932,2569,4294952184,5805,530,276,285,2210,16636,4294966417,4294967141,4294967146,4294967208,14379,4294963648,8114,148,223,4294967271
32685085,4294964931,2594,4294952155,5752,436,270,303,2207,16686,4294966345,4294967140,4294967127,4294967223,14397,4294963595,8100,137,203,4294967282
32691085,1725,2588,4294952162,5717,403,266,298,2137,16636,4294966256,4294967124,4294967108,4294967224,14399,4294963615,8102,163,238,4294967263
32697085,1567,2625,4294952170,5741,348,240,273,2190,16664,4294966365,4294967114,4294967125,4294967227,14354,4294963625,8096,155,256,4294967241
32703085,4294964928,2621,4294952122,5751,336,212,284,2167,16627,4294966442,4294967137,4294967145,4294967234,14431,4294963619,8058,164,240,4294967252
32709085,1720,2661,4294952123,5743,314,207,285,2189,16611,4294966399,4294967124,4294967143,4294967212,14410,4294963592,8062,167,248,4294967262
32715085,1706,2648,4294952100,5772,359,210,290,2175,16579,4294966397,4294967122,4294967161,4294967198,14423,4294963572,8032,167,260,4294967243
32721085,4294964939,2657,4294952042,5826,396,182,299,2193,16590,4294966375,4294967174,4294967160,4294967178,14367,4294963591,8044,155,229,4294967271
32727085,4294964969,2660,4294952058,5783,474,237,295,2223,16614,4294966394,4294967226,4294967137,4294967148,14422,4294963665,8085,155,229,4294967279
32733085,1722,2684,4294952043,5783,527,260,286,2239,16568,4294966382,4294967270,4294967135,4294967145,14342,4294963634,8107,182,244,4294967273
32739085,4294964933,2685,4294952048,5783,582,280,301,2199,16659,4294966390,4294967286,4294967158,4294967142,14408,4294963628,8074,179,245,4294967287
32745085,4294964943,2661,4294952058,5746,615,311,299,2168,16673,4294966403,4294967288,4294967172,4294967128,14353,4294963641,8076,175,238,4294967279
32751085,1720,2647,4294952124,5716,651,323,298,2103,16649,4294966413,4294967281,4294967196,4294967152,14405,4294963593,8120,173,232,4294967260
32757085,1587,2620,4294952150,5738,648,306,278,2118,16704,4294966338,4294967242,4294967166,4294967154,14394,4294963588,8085,159,240,4294967275
32763085,4294964918,2591,4294952168,5739,634,296,255,2106,16694,4294966314,4294967210,4294967144,4294967140,14383,4294963613,8083,164,245,4294967258
32769085,1711,2635,4294952151,5720,587,292,280,2153,16750,4294966333,4294967205,4294967104,4294967141,14325,4294963633,8028,165,239,4294967275
32775085,1727,2615,4294952167,5677,540,258,279,2162,16705,4294966342,4294967222,4294967018,4294967157,14329,4294963661,8077,170,242,4294967288
32781085,4294964941,2643,4294952192,5687,485,248,277,2241,16711,4294966255,4294967196,4294967060,4294967154,14366,4294963633,8115,157,251,4294967282
32787085,4294964949,2624,4294952161,5738,430,232,274,2212,16616,4294966294,4294967171,4294967102,4294967130,14399,4294963640,8074,164,232,4294967286
32793085,1717,2619,4294952199,5675,375,217,270,2231,16590,4294966274,4294967118,4294967101,4294967131,14339,4294963651,8093,153,251,4294967270
32799085,4294964934,2618,4294952098,5666,311,220,268,2177,16551,4294966335,4294967092,4294967142,4294967088,14345,4294963615,8068,154,251,4294967260
32805085,4294964935,2592,4294952101,5717,274,237,267,2116,16561,4294966344,4294967155,4294967141,4294967089,14400,4294963602,8058,152,252,4294967262
32811085,1720,2530,4294952049,5626,228,257,275,2098,16628,4294966390,4294967196,4294967127,4294967049,14363,4294963592,8145,167,239,4294967268
32817085,1533,2581,4294952072,5640,239,272,251,2124,16575,4294966442,4294967276,4294967114,4294967045,14417,4294963591,8150,152,243,4294967252
32823085,4294964940,2539,4294952051,5646,271,280,269,2122,16617,4294966398,45,4294967153,4294967050,14392,4294963641,8095,188,238,4294967274
32829085,1706,2597,4294952069,5743,343,301,278,2143,16662,4294966364,86,4294967173,4294967076,14399,4294963632,8135,184,238,4294967289
32835085,1708,2620,4294952034,5608,409,283,313,2141,16771,4294966388,78,4294967150,4294967110,14401,4294963607,8129,174,234,4294967264
32841085,4294964933,2602,4294952017,5701,515,286,309,2073,16790,4294966286,42,4294967111,4294967140,14369,4294963582,8130,188,219,4294967269
32847085,4294964953,2603,4294952021,5789,618,253,318,2168,16764,4294966291,4294967268,4294967072,4294967174,14413,4294963640,8041,184,216,4294967276
32853085,1724,2652,4294952089,5764,695,225,352,2205,16733,4294966270,4294967180,4294967138,4294967202,14404,4294963608,8075,172,220,4294967278
32859085,4294964950,2643,4294952089,5772,744,241,338,2184,16721,4294966313,4294967103,4294967209,4294967229,14352,4294963651,8082,174,223,4294967270
32865085,4294964932,2647,4294952099,5846,803,274,323,2076,16654,4294966365,4294967072,4294967195,4294967212,14393,4294963640,8151,172,219,4294967269
32871085,1713,2650,4294952110,5943,820,301,325,2120,16672,4294966280,4294967074,4294967153,4294967205,14359,4294963685,8094,160,223,4294967270
32877085,1634,2645,4294952126,5805,814,276,303,2144,16675,4294966248,4294967079,4294967138,4294967219,14458,4294963644,8104,147,220,4294967264
32883085,4294964932,2635,4294952084,5920,770,271,284,2159,16662,4294966302,4294967136,4294967139,4294967210,14364,4294963639,8127,168,242,4294967264
32889085,1723,2636,4294952136,5839,683,247,281,2149,16612,4294966330,4294967179,4294967127,4294967194,14375,4294963599,8121,163,242,4294967267
32895085,1704,2676,4294952151,5909,610,231,241,2134,16649,4294966245,4294967206,4294967149,4294967197,14367,4294963602,8075,160,250,4294967273
32901085,4294964934,2608,4294952178,5917,517,218,232,2149,16651,4294966352,4294967211,4294967135,4294967205,14394,4294963591,8095,173,234,4294967271
32907085,4294964934,2572,4294952149,5934,392,204,225,2176,16584,4294966447,4294967218,4294967130,4294967177,14345,4294963603,8091,169,215,4294967273
32913085,1730,2566,4294952180,5864,293,213,199,2168,16634,4294966482,4294967232,4294967166,4294967190,14363,4294963639,8098,174,233,4294967281
32919085,4294964946,2555,4294952158,5879,225,201,225,2142,16654,4294966319,4294967226,4294967169,4294967200,14383,4294963646,8062,165,211,4294967287
32925085,4294964929,2541,4294952144,5756,201,175,210,2106,16717,4294966342,4294967212,4294967172,4294967210,14365,4294963614,8091,154,216,4294967266
32931085,1704,2556,4294952146,5801,219,170,220,2121,16675,4294966335,4294967223,4294967151,4294967215,14359,4294963606,8057,168,222,4294967276
32937085,1664,2561,4294952091,5698,244,158,252,2179,16642,4294966373,4294967182,4294967163,4294967230,14412,4294963619,8075,179,217,4294967268
32943085,4294964936,2610,4294952083,5714,279,164,270,2166,16638,4294966334,4294967178,4294967180,4294967234,14395,4294963687,8095,168,233,4294967275
32949085,1728,2635,4294952092,5682,359,205,287,2139,16650,4294966328,4294967166,4294967181,4294967206,14390,4294963672,8101,175,217,4294967291
32955085,1723,2636,4294952072,5701,413,219,298,2192,16622,4294966308,4294967198,4294967148,4294967207,14369,4294963638,8125,154,225,4294967278
32961085,4294964942,2644,4294952076,5695,504,238,296,2173,16617,4294966305,4294967191,4294967136,4294967199,14376,4294963609,8142,154,231,4294967289
32967085,4294964933,2645,4294952080,5722,575,243,302,2161,16678,4294966439,4294967226,4294967128,4294967179,14400,4294963652,8031,146,216,9
32973085,1722,2634,4294952106,5697,610,250,303,2199,16628,4294966417,4294967190,4294967134,4294967172,14385,4294963646,8124,129,243,4294967291
32979085,4294964951,2632,4294952092,5812,620,254,315,2108,16677,4294966300,4294967191,4294967155,4294967182,14382,4294963666,8040,131,254,4294967262
32985085,4294964934,2622,4294952024,5734,642,285,314,2075,16645,4294966344,4294967182,4294967125,4294967154,14383,4294963598,8112,140,243,4294967268
32991085,1705,2677,4294952041,5814,626,291,333,2140,16616,4294966358,4294967185,4294967126,4294967157,14404,4294963641,8042,151,246,4294967262
32997085,1642,2603,4294952061,5864,622,309,293,2174,16612,4294966363,4294967204,4294967127,4294967159,14390,4294963629,8037,121,230,4294967255
33003085,4294964933,2593,4294952104,5825,619,286,300,2174,16666,4294966386,4294967235,4294967163,4294967164,14379,4294963615,8085,135,256,4294967270
33009085,1718,2573,4294952137,5800,602,240,284,2148,16690,4294966371,4294967248,4294967152,4294967156,14399,4294963650,8010,135,227,4294967276
33015085,1726,2560,4294952107,5778,550,226,284,2111,16683,4294966363,4294967256,4294967132,4294967171,14391,4294963641,8079,137,226,4294967270
33021085,4294964932,2577,4294952119,5801,525,213,290,2112,16715,4294966324,4294967242,4294967133,4294967200,14419,4294963604,8075,154,255,4294967279
33027085,4294964926,2570,4294952162,5827,468,222,271,2145,16683,4294966290,4294967212,4294967136,4294967215,14365,4294963595,8062,150,244,4294967276
33033085,1703,2543,4294952140,5748,453,233,290,2185,16735,4294966338,4294967196,4294967158,4294967197,14414,4294963614,8017,155,237,4294967286
33039085,4294964950,2586,4294952154,5698,431,229,295,2157,16728,4294966314,4294967156,4294967140,4294967201,14346,4294963632,8112,167,252,4294967259
33045085,4294964939,2524,4294952134,5727,409,228,299,2132,16670,4294966327,4294967145,4294967103,4294967211,14405,4294963585,8035,149,236,4294967264
33051085,1704,2542,4294952074,5795,407,232,312,2145,16674,4294966251,4294967145,4294967114,4294967200,14326,4294963569,8090,160,231,4294967277
33057085,1683,2562,4294952098,5734,376,211,320,2172,16686,4294966253,4294967115,4294967143,4294967199,14385,4294963640,8129,167,245,4294967259
33063085,4294964934,2564,4294952047,5828,375,185,311,2127,16701,4294966313,4294967133,4294967155,4294967198,14357,4294963652,8062,154,248,4294967258
33069085,1718,2593,4294952012,5821,376,189,300,2151,16582,4294966352,4294967157,4294967144,4294967196,14360,4294963615,8109,155,266,4294967262
33075085,1720,2658,4294951988,5830,397,198,258,2136,16572,4294966421,4294967176,4294967150,4294967202,14370,4294963626,8144,157,251,4294967269
33081085,4294964934,2635,4294952035,5768,421,183,285,2080,16576,4294966367,4294967180,4294967165,4294967197,14393,4294963561,8097,154,264,4294967225
33087085,4294964938,2663,4294952061,5735,471,220,254,2086,16628,4294966366,4294967228,4294967134,4294967174,14352,4294963592,8042,158,248,4294967229
33093085,1719,2713,4294952057,5771,505,239,279,2141,16715,4294966350,4294967231,4294967151,4294967196,14429,4294963611,8071,179,256,4294967250
33099085,4294964995,2689,4294952099,5705,551,257,262,2134,16695,4294966387,4294967260,4294967149,4294967194,14386,4294963702,8088,172,244,4294967252
33105085,4294964914,2621,4294952137,5818,596,271,269,2185,16709,4294966400,4294967240,4294967144,4294967234,14392,4294963607,8110,171,239,4294967257
33111085,1708,2660,4294952186,5769,635,262,263,2179,16649,4294966345,4294967230,4294967132,4294967239,14380,4294963614,8059,174,261,4294967231
33117085,1693,2630,4294952116,5793,634,264,253,2172,16739,4294966300,4294967165,4294967153,4294967252,14462,4294963614,8039,153,255,4294967271
33123085,4294964932,2552,4294952080,5744,620,243,274,2171,16669,4294966261,4294967140,4294967154,4294967224,14405,4294963631,8111,156,248,4294967265
33129085,1706,2560,4294952127,5713,576,227,264,2155,16660,4294966292,4294967110,4294967167,4294967237,14372,4294963645,8071,157,262,4294967270
33135085,1712,2523,4294952169,5809,540,208,275,2161,16667,4294966276,4294967115,4294967129,4294967225,14344,4294963641,8087,165,262,4294967243
33141085,4294964950,2591,4294952154,5768,482,203,270,2215,16683,4294966259,4294967125,4294967125,4294967210,14382,4294963617,8067,163,259,4294967253
33147085,4294964934,2598,4294952136,5738,404,197,275,2172,16574,4294966338,4294967131,4294967143,4294967209,14374,4294963642,8040,174,242,4294967257
33153085,1712,2581,4294952167,5725,358,178,253,2140,16544,4294966427,4294967145,4294967122,4294967186,14394,4294963628,8076,171,248,4294967260
33159085,4294965006,2577,4294952119,5708,327,191,247,2159,16623,4294966352,4294967170,4294967108,4294967179,14382,4294963634,8066,163,250,4294967251
33165085,4294964921,2608,4294952078,5704,274,169,245,2133,16717,4294966346,4294967206,4294967117,4294967161,14390,4294963647,8143,154,232,4294967265
33171085,1689,2609,4294952063,5807,246,165,221,2166,16699,4294966341,4294967252,4294967087,4294967146,14415,4294963621,8105,161,242,4294967269
33177085,1716,2566,4294952027,5813,284,163,229,2149,16649,4294966369,4294967233,4294967113,4294967164,14383,4294963668,8058,169,242,4294967268
33183085,4294964931,2602,4294951998,5797,335,175,217,2172,16656,4294966382,4294967212,4294967126,4294967167,14354,4294963603,8059,152,224,4294967277
33189085,1710,2624,4294952006,5700,395,187,212,2176,16644,4294966335,4294967169,4294967150,4294967186,14372,4294963638,8066,162,252,4294967273
33195085,1714,2577,4294952049,5742,454,219,218,2097,16627,4294966330,4294967124,4294967156,4294967203,14358,4294963605,8108,168,246,4294967271
33201085,4294964932,2587,4294952105,5748,526,235,239,2138,16684,4294966362,4294967129,4294967138,4294967224,14354,4294963640,8129,137,239,4294967280
33207085,4294964932,2596,4294952121,5649,593,254,288,2161,16651,4294966378,4294967147,4294967118,4294967189,14388,4294963637,8105,142,230,4294967284
33213085,1724,2551,4294952179,5719,642,261,250,2194,16710,4294966417,4294967193,4294967167,4294967182,14358,4294963619,8150,156,249,4294967276
33219085,4294965010,2589,4294952187,5691,676,268,271,2128,16691,4294966347,4294967197,4294967163,4294967169,14343,4294963601,8170,148,216,4294967291
33225085,4294964940,2622,4294952181,5732,641,271,286,2115,16635,4294966309,4294967217,4294967120,4294967180,14394,4294963639,8150,163,217,10
33231085,1728,2602,4294952174,5869,595,264,310,2114,16612,4294966326,4294967203,4294967103,4294967177,14395,4294963673,8076,147,213,4294967290
33237085,1714,2606,4294952088,5896,525,234,281,2185,16648,4294966379,4294967171,4294967163,4294967176,14385,4294963639,8110,145,220,4294967277
33243085,4294964946,2601,4294952075,5846,427,223,284,2100,16723,4294966421,4294967202,4294967159,4294967150,14366,4294963636,8117,152,213,4294967293
33249085,1707,2582,4294952092,5860,365,206,299,2133,16680,4294966327,4294967217,4294967143,4294967152,14395,4294963626,8122,159,229,4294967266
33255085,1722,2600,4294952057,5834,292,204,263,2150,16660,4294966323,4294967222,4294967117,4294967166,14348,4294963647,8028,156,235,4294967280
33261085,4294964932,2621,4294952090,5804,247,201,252,2181,16635,4294966370,4294967211,4294967134,4294967181,14380,4294963564,8124,158,234,0
33267085,4294964927,2606,4294952097,5730,254,192,234,2183,16666,4294966248,4294967188,4294967163,4294967173,14371,4294963638,8051,154,230,4294967276
33273085,1724,2623,4294952052,5781,280,202,255,2161,16710,4294966339,4294967200,4294967150,4294967186,14423,4294963643,8074,146,256,4294967290
33279085,4294965129,2648,4294952044,5747,322,237,269,2090,16712,4294966245,4294967200,4294967145,4294967179,14392,4294963595,8063,163,235,9
33285085,4294964927,2617,4294952036,5736,428,254,262,2181,16681,4294966332,4294967191,4294967123,4294967189,14428,4294963599,8100,170,226,4
33291085,1728,2588,4294952100,5690,493,260,283,2171,16644,4294966328,4294967200,4294967146,4294967203,14417,4294963637,8090,173,231,4294967287
33297085,1706,2539,4294952020,5771,585,264,272,2096,16623,4294966402,4294967176,4294967165,4294967215,14373,4294963611,8016,164,224,0
33303085,4294964926,2600,4294952052,5707,648,269,290,2133,16613,4294966296,4294967186,4294967192,4294967201,14408,4294963631,8116,167,240,4
33309085,1710,2616,4294952058,5803,683,259,285,2051,16604,4294966280,4294967169,4294967159,4294967215,14431,4294963634,8091,171,229,4294967295
33315085,1721,2629,4294952082,5768,681,262,274,2157,16596,4294966386,4294967181,4294967163,4294967203,14411,4294963625,8067,166,224,4294967278
33321085,4294964919,2605,4294952162,5750,696,247,285,2180,16653,4294966329,4294967224,4294967161,4294967168,14413,4294963620,8052,154,234,4294967286
33327085,4294964925,2607,4294952095,5716,648,261,284,2127,16674,4294966383,4294967268,4294967184,4294967154,14407,4294963666,8057,165,245,4294967276
33333085,1712,2573,4294952143,5756,586,256,277,2111,16638,4294966331,4294967258,4294967162,4294967191,14403,4294963607,8105,135,228,4294967277
33339085,4294965152,2567,4294952114,5841,508,245,265,2110,16711,4294966356,4294967237,4294967140,4294967191,14368,4294963614,8087,154,235,4294967280
33345085,4294964934,2630,4294952088,5863,450,247,240,2117,16708,4294966236,4294967231,4294967174,4294967195,14357,4294963611,8106,147,241,0
33351085,1712,2607,4294952208,5855,374,229,222,2087,16694,4294966326,4294967208,4294967185,4294967209,14386,4294963596,8096,160,232,4294967267
33357085,1715,2643,4294952067,5784,322,204,233,2135,16669,4294966338,4294967171,4294967201,4294967240,14380,4294963617,8070,147,224,4294967269
33363085,4294964923,2573,4294952122,5766,283,201,257,2107,16709,4294966336,4294967153,4294967186,4294967232,14358,4294963649,8125,146,241,4294967271
33369085,1722,2607,4294952018,5811,288,220,251,2149,16771,4294966233,4294967156,4294967177,4294967227,14422,4294963621,8101,142,241,4294967264
33375085,1712,2594,4294952042,5753,304,233,229,2146,16770,4294966233,4294967184,4294967155,4294967265,14435,4294963638,8084,155,256,4294967275
33381085,4294964932,2601,4294951996,5730,352,226,243,2158,16680,4294966211,4294967179,4294967143,4294967242,14409,4294963641,8111,147,256,4294967261
33387085,4294964929,2560,4294952096,5733,394,246,250,2182,16637,4294966357,4294967158,4294967126,4294967254,14415,4294963645,8111,143,242,4294967269
33393085,1713,2525,4294952093,5685,444,239,238,2144,16618,4294966351,4294967156,4294967128,4294967258,14401,4294963600,8129,134,241,4294967245
33399085,4294965129,2582,4294952081,5751,496,247,222,2149,16612,4294966304,4294967124,4294967153,4294967238,14385,4294963616,8037,154,239,4294967260
33405085,4294964938,2590,4294952107,5649,530,258,262,2134,16588,4294966353,4294967131,4294967146,4294967216,14383,4294963595,8054,162,233,4294967282
33411085,1727,2594,4294952123,5711,577,261,270,2090,16591,4294966306,4294967129,4294967152,4294967216,14362,4294963632,8124,168,258,4294967270
33417085,1708,2567,4294952162,5723,611,274,277,2143,16583,4294966376,4294967143,4294967156,4294967183,14405,4294963614,8070,171,231,4294967272
33423085,4294964943,2611,4294952115,5699,597,285,290,2114,16600,4294966403,4294967212,4294967133,4294967166,14360,4294963592,8058,144,246,4294967273
33429085,1708,2589,4294952076,5795,565,271,278,2083,16655,4294966362,4294967248,4294967151,4294967154,14400,4294963636,8063,170,248,4294967287
33435085,1706,2603,4294952114,5875,531,281,284,2093,16697,4294966367,4294967282,4294967131,4294967143,14431,4294963642,8098,163,244,4294967276
33441085,4294964930,2638,4294952073,5819,516,258,285,2086,16674,4294966337,4294967263,4294967133,4294967150,14412,4294963639,8150,164,249,4294967268
33447085,4294964927,2626,4294952090,5824,470,246,274,2141,16655,4294966379,4294967223,4294967147,4294967188,14410,4294963608,8148,157,248,4294967281
33453085,1711,2607,4294952073,5903,425,223,250,2170,16693,4294966307,4294967191,4294967171,4294967159,14351,4294963616,8070,159,257,4294967269
33459085,4294965131,2569,4294952078,5831,405,235,268,2138,16664,4294966348,4294967193,4294967137,4294967163,14413,4294963602,8063,169,260,4294967268
33465085,4294964932,2568,4294952080,5929,381,248,249,2125,16696,4294966421,4294967150,4294967155,4294967179,14389,4294963596,8063,174,253,4294967274
33471085,1716,2581,4294952111,5799,389,241,267,2163,16686,4294966397,4294967154,4294967168,4294967182,14330,4294963644,8164,176,254,4294967275
33477085,1719,2569,4294952103,5742,401,227,252,2099,16652,4294966331,4294967176,4294967136,4294967184,14396,4294963551,8068,166,235,4294967257
33483085,4294964930,2541,4294952120,5815,450,245,255,2117,16667,4294966349,4294967195,4294967168,4294967190,14355,4294963624,8164,161,240,4294967273
33489085,1718,2572,4294952093,5727,488,213,243,2144,16635,4294966365,4294967198,4294967148,4294967162,14407,4294963636,8070,160,247,4294967265
33495085,1711,2580,4294952093,5797,541,207,235,2149,16592,4294966310,4294967200,4294967140,4294967165,14369,4294963622,8185,148,245,4294967246
33501085,4294964936,2566,4294952104,5698,569,226,235,2198,16584,4294966397,4294967210,4294967137,4294967167,14360,4294963583,8125,156,248,4294967282
33507085,4294964938,2559,4294952136,5716,561,221,256,2108,16651,4294966335,4294967233,4294967140,4294967150,14365,4294963636,8098,154,232,4294967263
33513085,1708,2606,4294952126,5686,568,242,250,2133,16732,4294966313,4294967244,4294967145,4294967152,14420,4294963621,8101,149,252,4294967272
33519085,4294965143,2595,4294952186,5677,523,249,271,2077,16692,4294966260,4294967258,4294967103,4294967136,14329,4294963590,8125,163,250,4294967265
33525085,4294964934,2575,4294952108,5698,476,261,280,2091,16662,4294966316,4294967252,4294967134,4294967122,14413,4294963651,8070,145,249,4294967267
33531085,1723,2535,4294952139,5755,443,259,294,2065,16667,4294966346,4294967230,4294967130,4294967142,14411,4294963642,8094,137,233,4294967250
33537085,1720,2586,4294952143,5617,419,276,312,2045,16683,4294966373,4294967230,4294967155,4294967165,14370,4294963582,8042,168,213,4294967257
33543085,4294964932,2566,4294952110,5684,381,264,308,2091,16785,4294966339,4294967213,4294967143,4294967142,14408,4294963605,8072,163,222,4294967280
33549085,1712,2597,4294952128,5703,387,237,291,2130,16768,4294966283,4294967234,4294967146,4294967168,14420,4294963606,8104,153,231,4294967246
33555085,1719,2616,4294952095,5682,414,254,322,2144,16778,4294966330,4294967181,4294967125,4294967199,14408,4294963599,8103,150,238,4294967271
33561085,4294964922,2619,4294952054,5835,465,257,341,2156,16690,4294966282,4294967160,4294967127,4294967230,14372,4294963654,8016,168,226,4294967285
33567085,4294964945,2601,4294952042,5817,519,255,356,2147,16647,4294966352,4294967127,4294967162,4294967256,14392,4294963630,8049,172,223,4294967258
33573085,1716,2536,4294952075,5841,574,180,341,2126,16638,4294966214,4294967080,4294967157,4294967275,14395,4294963634,8118,171,217,4294967283
33579085,4294965243,2550,4294952054,5903,541,142,320,2112,16657,4294966284,4294967082,4294967141,4294967273,14373,4294963629,8116,151,232,4294967273
33585085,4294964945,2643,4294952065,5909,562,179,293,2096,16674,4294966320,4294967131,4294967144,4294967247,14335,4294963637,8046,162,238,4294967269
33591085,1725,2643,4294952066,5836,585,239,284,2197,16509,4294966275,4294967128,4294967139,4294967247,14405,4294963671,8042,168,228,4294967283
33597085,1714,2639,4294952044,5801,597,283,239,2148,16546,4294966408,4294967152,4294967166,4294967254,14418,4294963600,8133,145,259,4294967259
33603085,4294964925,2525,4294952046,5805,616,280,233,2110,16584,4294966451,4294967207,4294967200,4294967216,14388,4294963606,8098,161,224,4294967287
33609085,1721,2564,4294952026,5839,564,261,218,2108,16625,4294966342,4294967235,4294967177,4294967186,14417,4294963673,8003,151,257,4294967258
33615085,1717,2556,4294952090,5848,524,244,212,2077,16722,4294966248,4294967269,4294967124,4294967166,14412,4294963625,8090,167,229,4294967272
33621085,4294964943,2564,4294952138,5816,470,218,202,2130,16617,4294966304,4294967284,4294967133,4294967171,14424,4294963641,8078,173,220,4294967290
33627085,4294964928,2496,4294952163,5745,424,214,206,2184,16649,4294966350,4294967237,4294967152,4294967201,14394,4294963659,8102,167,238,4294967280
33633085,1715,2529,4294952162,5756,411,181,206,2155,16662,4294966330,4294967191,4294967148,4294967213,14397,4294963628,8029,163,255,4294967281
33639085,4294965264,2558,4294952199,5780,394,171,204,2062,16691,4294966358,4294967156,4294967147,4294967227,14386,4294963629,8065,170,233,4294967270
33645085,4294964928,2511,4294952155,5796,386,176,222,2134,16684,4294966316,4294967116,4294967131,4294967199,14430,4294963614,8074,161,238,4294967292
33651085,1731,2543,4294952171,5722,388,188,214,2105,16682,4294966281,4294967125,4294967140,4294967215,14385,4294963622,8082,170,218,4294967281
33657085,1698,2573,4294952172,5722,380,187,252,2112,16675,4294966289,4294967170,4294967155,4294967221,14400,4294963601,8071,155,239,3
33663085,4294964943,2584,4294952089,5752,395,196,254,2131,16569,4294966305,4294967181,4294967162,4294967224,14423,4294963667,8018,149,249,12
33669085,1722,2575,4294952114,5668,420,181,251,2133,16584,4294966303,4294967170,4294967161,4294967217,14399,4294963655,8083,165,252,4294967294
33675085,1716,2654,4294952074,5698,440,194,270,2175,16671,4294966296,4294967170,4294967135,4294967212,14347,4294963597,8056,150,255,2
33681085,4294964941,2637,4294952105,5755,437,221,272,2139,16628,4294966378,4294967226,4294967161,4294967185,14369,4294963624,8040,136,251,4294967289
33687085,4294964940,2654,4294952116,5813,445,218,283,2165,16665,4294966232,4294967234,4294967148,4294967191,14392,4294963614,8140,121,248,4294967272
33693085,1719,2648,4294952149,5727,449,263,272,2192,16653,4294966389,4294967207,4294967142,4294967158,14358,4294963598,8032,137,244,4294967270
33699085,4294965329,2616,4294952058,5864,465,268,268,2151,16624,4294966288,4294967196,4294967168,4294967190,14337,4294963655,8067,138,268,4294967282
33705085,4294964947,2612,4294952038,5847,448,252,238,2184,16659,4294966265,4294967191,4294967166,4294967198,14395,4294963582,8115,134,249,4294967278
33711085,1706,2584,4294952037,5782,432,255,261,2092,16683,4294966291,4294967199,4294967135,4294967161,14340,4294963622,8132,132,229,4294967285
33717085,1711,2586,4294952081,5834,447,269,241,2163,16690,4294966329,4294967238,4294967117,4294967147,14329,4294963604,8085,137,231,1
33723085,4294964945,2530,4294952047,5773,463,263,248,2100,16657,4294966344,4294967227,4294967142,4294967171,14396,4294963605,8124,138,226,4294967284
33729085,1713,2501,4294952082,5795,484,254,283,2110,16683,4294966378,4294967247,4294967129,4294967174,14348,4294963600,8053,147,231,4294967264
33735085,1715,2558,4294952088,5764,507,232,260,2090,16697,4294966323,4294967241,4294967139,4294967183,14381,4294963613,8064,144,237,4294967259
33741085,4294964922,2540,4294952211,5720,527,257,254,2096,16725,4294966260,4294967236,4294967129,4294967167,14428,4294963590,8073,139,250,4294967271
33747085,4294964921,2507,4294952151,5799,552,243,275,2122,16715,4294966273,4294967189,4294967119,4294967174,14336,4294963624,8062,139,230,4294967271
33753085,1727,2532,4294952133,5769,563,241,298,2148,16664,4294966294,4294967160,4294967137,4294967208,14451,4294963631,8016,152,232,4294967281
33759085,4294965397,2597,4294952179,5848,577,235,292,2138,16645,4294966344,4294967124,4294967145,4294967211,14347,4294963619,8079,165,241,4294967242
33765085,4294964946,2523,4294952190,5778,571,230,294,2117,16623,4294966299,4294967122,4294967129,4294967213,14380,4294963629,8078,152,238,4294967264
33771085,1720,2625,4294952127,5783,546,227,295,2121,16648,4294966263,4294967149,4294967116,4294967195,14386,4294963628,8079,135,244,4294967253
33777085,1728,2606,4294952119,5813,522,220,280,2120,16625,4294966310,4294967174,4294967140,4294967190,14370,4294963632,8023,156,247,4294967255
33783085,4294964920,2601,4294952113,5764,457,231,300,2149,16621,4294966347,4294967199,4294967141,4294967192,14350,4294963619,8087,151,263,4294967264
33789085,1722,2581,4294952065,5841,409,202,281,2097,16552,4294966325,4294967191,4294967146,4294967181,14363,4294963632,8115,159,263,4294967260
33795085,1713,2626,4294952119,5667,371,207,282,2109,16625,4294966332,4294967185,4294967141,4294967186,14367,4294963590,8045,152,264,4294967260
33801085,4294964930,2646,4294952120,5761,339,209,274,2163,16712,4294966300,4294967213,4294967158,4294967153,14385,4294963608,8028,158,273,4294967253
33807085,4294964919,2584,4294952148,5674,310,235,247,2119,16712,4294966359,4294967215,4294967125,4294967173,14381,4294963639,8040,147,259,4294967253
33813085,1723,2617,4294952103,5669,340,234,268,2156,16628,4294966355,4294967162,4294967135,4294967188,14362,4294963628,8118,149,244,4294967258
33819085,4294965400,2602,4294952105,5731,367,249,267,2089,16600,4294966364,4294967171,4294967160,4294967199,14368,4294963557,8159,165,254,4294967268
33825085,4294964927,2573,4294952058,5790,409,244,286,2075,16651,4294966361,4294967181,4294967191,4294967189,14358,4294963611,8110,176,251,4294967274
33831085,1700,2537,4294952038,5791,475,243,279,2098,16728,4294966247,4294967195,4294967175,4294967172,14374,4294963618,8087,178,230,4294967244
33837085,1728,2521,4294952010,5728,542,265,266,2091,16773,4294966262,4294967216,4294967121,4294967171,14402,4294963660,8140,180,246,4294967247
33843085,4294964929,2520,4294952041,5672,614,246,299,2156,16663,4294966367,4294967209,4294967125,4294967167,14383,4294963614,8109,192,244,4294967261
33849085,1718,2555,4294952041,5730,668,271,299,2196,16682,4294966453,4294967176,4294967166,4294967190,14407,4294963654,8040,185,237,4294967257
33855085,1718,2572,4294952081,5746,698,273,274,2110,16672,4294966305,4294967177,4294967189,4294967182,14410,4294963626,8085,181,237,4294967262
33861085,4294964937,2533,4294952123,5777,706,294,281,2116,16747,4294966256,4294967165,4294967134,4294967188,14375,4294963681,8099,179,237,4294967275
33867085,4294964938,2537,4294952174,5816,664,293,294,2108,16672,4294966190,4294967151,4294967119,4294967193,14402,4294963609,8125,173,239,4294967245
33873085,1719,2589,4294952156,5740,632,284,283,2146,16620,4294966353,4294967143,4294967107,4294967212,14411,4294963633,8044,174,261,4294967253
33879085,4294965454,2586,4294952102,5765,582,269,288,2098,16625,4294966375,4294967164,4294967166,4294967220,14367,4294963671,8053,166,267,4294967254
33885085,4294964931,2540,4294952122,5756,504,230,273,2123,16619,4294966327,4294967163,4294967181,4294967223,14381,4294963612,8093,157,247,4294967254
33891085,1715,2565,4294952131,5832,411,220,254,2040,16651,4294966294,4294967192,4294967156,4294967226,14333,4294963714,8052,156,246,4294967274
33897085,1717,2558,4294952108,5775,399,204,245,2091,16702,4294966261,4294967225,4294967153,4294967205,14352,4294963611,8105,154,250,4294967276
33903085,4294964943,2532,4294952144,5818,335,195,280,2117,16678,4294966252,4294967232,4294967156,4294967189,14382,4294963684,8096,150,251,4294967256
33909085,1661,2561,4294952092,5777,295,169,260,2088,16647,4294966379,4294967244,4294967182,4294967176,14417,4294963648,8075,134,236,4294967269
33915085,1705,2626,4294952115,5801,299,193,247,2093,16639,4294966390,4294967215,4294967190,4294967212,14397,4294963647,8119,166,244,4294967282
33921085,4294964938,2575,4294952111,5789,305,176,247,2086,16682,4294966316,4294967218,4294967154,4294967201,14364,4294963679,8147,139,257,4294967267
33927085,4294964925,2620,4294952104,5800,325,195,252,2081,16739,4294966314,4294967213,4294967140,4294967181,14394,4294963601,8029,137,248,4294967268
33933085,1700,2650,4294952090,5728,379,234,261,2091,16701,4294966218,4294967194,4294967161,4294967197,14375,4294963620,8063,153,234,4294967290
33939085,4294965459,2595,4294952151,5724,441,254,255,2154,16702,4294966358,4294967183,4294967144,4294967214,14368,4294963638,8065,179,237,4294967288
33945085,4294964922,2640,4294952057,5770,489,274,271,2140,16616,4294966340,4294967137,4294967175,4294967235,14376,4294963584,8059,176,227,4294967288
33951085,1721,2634,4294952088,5715,526,255,263,2121,16597,4294966295,4294967116,4294967195,4294967222,14376,4294963612,8078,164,230,4294967285
33957085,1726,2615,4294952080,5864,551,274,278,2100,16649,4294966260,4294967146,4294967196,4294967217,14373,4294963648,8065,172,226,4294967288
33963085,4294964926,2598,4294952091,5814,590,257,265,2110,16604,4294966305,4294967142,4294967172,4294967182,14360,4294963620,8103,170,234,4294967282
33969085,1587,2594,4294952092,5740,568,236,262,2162,16643,4294966365,4294967183,4294967134,4294967176,14384,4294963637,8076,168,219,4294967292
33975085,1705,2548,4294952048,5736,575,259,252,2180,16640,4294966385,4294967254,4294967153,4294967165,14392,4294963656,8147,144,236,4294967291
33981085,4294964977,2505,4294952036,5789,571,276,231,2118,16630,4294966369,4294967286,4294967171,4294967174,14363,4294963635,8127,160,215,4294967286
33987085,4294964935,2516,4294952125,5812,562,265,241,2032,16665,4294966253,2,4294967149,4294967181,14328,4294963592,8087,151,223,4
33993085,1708,2536,4294952108,5735,560,234,268,2057,16716,4294966252,4294967285,4294967079,4294967184,14398,4294963637,8093,160,231,4294967279
33999085,4294965501,2550,4294952126,5836,546,205,247,2111,16693,4294966263,4294967276,4294967089,4294967163,14378,4294963632,8084,165,225,4294967282
34005085,4294964938,2577,4294952120,5774,518,213,258,2090,16747,4294966236,4294967216,4294967107,4294967195,14359,4294963597,8064,145,226,4294967278
34011085,1699,2549,4294952119,5753,491,243,273,2137,16663,4294966302,4294967151,4294967138,4294967225,14384,4294963628,8089,141,236,4294967282
34017085,1706,2516,4294952127,5779,488,275,287,2113,16601,4294966339,4294967095,4294967165,4294967241,14360,4294963581,8077,150,229,4294967278
34023085,4294964946,2534,4294952118,5777,475,262,280,2108,16613,4294966250,4294967112,4294967191,4294967229,14347,4294963632,8061,159,238,4294967265
34029085,1592,2542,4294952105,5806,471,242,280,2093,16681,4294966238,4294967112,4294967166,4294967207,14362,4294963644,8176,163,234,4294967277
34035085,1720,2529,4294952185,5675,471,250,293,2081,16703,4294966229,4294967184,4294967175,4294967204,14367,4294963626,8067,139,228,4294967286
34041085,4294964915,2551,4294952116,5710,444,219,271,2129,16649,4294966346,4294967224,4294967153,4294967204,14353,4294963593,8088,153,227,4294967263
34047085,4294964946,2577,4294952151,5820,436,237,296,2126,16648,4294966414,4294967232,4294967155,4294967220,14376,4294963605,8052,150,212,4294967277
34053085,1724,2609,4294952139,5823,428,248,310,2098,16617,4294966284,4294967238,4294967172,4294967199,14397,4294963604,8054,149,226,4294967260
34059085,4294965586,2602,4294952046,5769,421,237,280,2171,16656,4294966306,4294967222,4294967147,4294967204,14403,4294963636,8097,147,225,4294967283
34065085,4294964923,2572,4294952036,5814,432,237,264,2104,16683,4294966253,4294967197,4294967122,4294967186,14401,4294963582,8065,178,228,4294967284
34071085,1717,2566,4294952030,5812,408,257,262,2119,16721,4294966272,4294967195,4294967122,4294967199,14384,4294963609,8115,162,236,4294967277
34077085,1715,2591,4294952015,5858,431,242,243,2133,16728,4294966265,4294967161,4294967156,4294967210,14406,4294963611,8107,150,230,4294967287
34083085,4294964936,2591,4294952002,5736,479,229,244,2135,16652,4294966365,4294967150,4294967175,4294967225,14371,4294963593,8080,162,241,4294967274
34089085,1448,2541,4294952046,5837,507,225,232,2081,16622,4294966288,4294967137,4294967147,4294967236,14390,4294963632,8043,142,253,4294967284
34095085,1715,2559,4294952037,5761,555,238,248,2106,16650,4294966280,4294967165,4294967150,4294967242,14377,4294963578,8070,156,245,4294967276
34101085,4294964937,2567,4294952159,5769,575,251,255,2098,16741,4294966258,4294967198,4294967151,4294967215,14362,4294963591,8071,159,232,4294967278
34107085,4294964927,2554,4294952131,5688,594,263,275,2134,16661,4294966344,4294967227,4294967135,4294967230,14352,4294963666,8063,166,239,4294967268
34113085,1700,2504,4294952143,5795,631,274,276,2143,16722,4294966357,4294967230,4294967158,4294967227,14384,4294963631,8067,152,244,4294967277
34119085,4294965484,2538,4294952144,5802,661,301,269,2123,16637,4294966305,4294967184,4294967160,4294967237,14365,4294963649,8057,163,223,4294967263
34125085,4294964931,2533,4294952165,5741,663,292,309,2101,16619,4294966253,4294967154,4294967175,4294967250,14388,4294963663,7981,148,245,4294967256
34131085,1731,2494,4294952202,5763,633,277,314,2118,16629,4294966258,4294967139,4294967174,4294967235,14384,4294963638,7985,158,260,4294967265
34137085,1717,2499,4294952221,5782,591,260,302,2078,16649,4294966299,4294967131,4294967187,4294967198,14372,4294963631,8035,158,252,4294967256
34143085,4294964935,2555,4294952170,5749,555,242,302,2119,16617,4294966386,4294967145,4294967160,4294967182,14369,4294963596,8106,158,249,4294967259
34149085,1495,2579,4294952161,5867,508,250,305,2116,16631,4294966406,4294967169,4294967176,4294967213,14440,4294963610,8126,146,254,4294967275
34155085,1712,2592,4294952144,5908,454,245,304,2081,16678,4294966397,4294967233,4294967195,4294967207,14387,4294963633,8062,172,246,4294967279
34161085,4294964938,2600,4294952115,5874,405,216,308,2110,16714,4294966208,4294967219,4294967167,4294967211,14417,4294963663,8043,166,249,4294967272
34167085,4294964948,2610,4294952078,5873,364,203,298,2140,16670,4294966279,4294967231,4294967142,4294967208,14387,4294963618,8081,163,242,4294967283
34173085,1733,2654,4294952063,5902,349,192,292,2212,16700,4294966359,4294967229,4294967131,4294967208,14410,4294963615,8063,153,250,4294967274
34179085,4294965605,2664,4294952088,5911,354,187,288,2118,16636,4294966260,4294967194,4294967156,4294967202,14394,4294963650,7985,178,254,4294967278
34185085,4294964932,2626,4294952055,5798,358,206,274,2139,16667,4294966242,4294967165,4294967158,4294967186,14423,4294963616,8076,167,249,4294967268
34191085,1704,2599,4294952056,5802,408,228,247,2090,16694,4294966302,4294967190,4294967117,4294967199,14355,4294963627,8128,173,241,4294967285
34197085,1714,2607,4294952124,5844,470,258,256,2112,16697,4294966309,4294967204,4294967111,4294967170,14384,4294963614,8119,149,258,4294967278
34203085,4294964925,2555,4294952106,5731,488,282,293,2137,16650,4294966339,4294967195,4294967105,4294967178,14351,4294963611,8080,145,245,4294967280
34209085,1338,2502,4294952092,5739,515,302,290,2101,16669,4294966228,4294967224,4294967126,4294967201,14361,4294963606,8039,164,272,4294967282
34215085,1728,2458,4294952149,5689,567,253,289,2131,16707,4294966152,4294967238,4294967139,4294967169,14414,4294963647,8035,146,248,4294967273
34221085,4294964930,2513,4294952099,5756,576,257,288,2070,16720,4294966178,4294967242,4294967108,4294967161,14347,4294963613,8116,163,239,4294967272
34227085,4294964931,2450,4294952133,5815,587,248,287,2144,16705,4294966246,4294967211,4294967103,4294967148,14296,4294963611,8094,161,223,4294967275
34233085,1728,2530,4294952137,5769,602,248,318,2116,16668,4294966315,4294967177,4294967131,4294967178,14330,4294963592,8167,151,227,4294967270
34239085,4294965781,2530,4294952099,5741,602,272,326,2128,16668,4294966338,4294967146,4294967144,4294967208,14373,4294963657,8108,157,227,4294967275
34245085,4294964939,2472,4294952044,5789,557,245,319,2050,16644,4294966324,4294967103,4294967140,4294967202,14404,4294963632,8148,155,248,4294967274
34251085,1712,2498,4294952097,5730,494,217,329,2078,16672,4294966295,4294967129,4294967115,4294967184,14365,4294963685,8106,161,222,4294967279
34257085,1728,2583,4294952071,5712,467,214,310,2116,16670,4294966302,4294967154,4294967142,4294967177,14343,4294963637,8108,166,242,4294967270
34263085,4294964938,2576,4294952156,5807,432,267,285,2095,16631,4294966319,4294967189,4294967150,4294967162,14357,4294963663,8137,162,234,4294967259
34269085,1390,2579,4294952133,5810,419,307,287,2069,16650,4294966349,4294967219,4294967165,4294967175,14361,4294963635,8159,146,250,4294967292
34275085,1722,2543,4294952215,5847,406,347,302,2117,16666,4294966392,4294967224,4294967164,4294967212,14368,4294963581,8096,168,233,4294967273
34281085,4294964939,2543,4294952165,5767,385,320,314,2167,16728,4294966286,4294967205,4294967152,4294967208,14354,4294963624,8092,139,233,4294967274
34287085,4294964932,2562,4294952128,5871,359,315,340,2080,16753,4294966282,4294967200,4294967165,4294967235,14363,4294963674,8120,175,246,4294967274
34293085,1709,2562,4294952104,5827,392,282,355,2072,16743,4294966210,4294967198,4294967155,4294967225,14382,4294963642,8113,170,231,4294967267
34299085,4294965780,2542,4294952041,5903,408,267,346,2133,16713,4294966256,4294967181,4294967145,4294967245,14399,4294963617,8093,152,216,4294967282
34305085,4294964921,2510,4294952007,5794,430,240,324,2110,16695,4294966279,4294967165,4294967152,4294967239,14405,4294963635,8070,157,233,4294967273
34311085,1712,2476,4294952020,5850,434,159,325,2150,16663,4294966327,4294967127,4294967154,4294967259,14417,4294963631,8123,178,231,0
34317085,1713,2508,4294952024,5892,486,157,311,2100,16672,4294966195,4294967121,4294967153,4294967277,14400,4294963600,8078,177,234,4294967289
34323085,4294964935,2551,4294951996,5889,501,183,308,2097,16672,4294966222,4294967112,4294967142,4294967262,14295,4294963644,8089,159,225,4294967263
34329085,1242,2540,4294952024,5920,543,219,271,2106,16668,4294966300,4294967135,4294967131,4294967245,14371,4294963660,8050,157,238,4294967276
34335085,1722,2631,4294952056,5849,597,290,245,2138,16636,4294966294,4294967139,4294967113,4294967232,14402,4294963642,8096,159,254,4294967288
34341085,4294964948,2502,4294952100,5858,619,303,247,2166,16571,4294966397,4294967130,4294967131,4294967249,14371,4294963627,8097,164,237,4294967285
34347085,4294964937,2516,4294952136,5841,651,307,234,2097,16652,4294966304,4294967148,4294967154,4294967241,14388,4294963630,8075,154,238,4294967264
34353085,1719,2489,4294952172,5892,689,309,209,2067,16645,4294966338,4294967154,4294967146,4294967227,14345,4294963663,8089,169,239,0
34359085,4294965873,2441,4294952118,5865,671,263,214,2089,16606,4294966295,4294967175,4294967147,4294967222,14362,4294963627,8103,179,240,4294967267
34365085,4294964931,2501,4294952197,5830,603,238,214,2142,16593,4294966411,4294967148,4294967159,4294967215,14407,4294963620,8069,175,250,4294967269
34371085,1703,2512,4294952243,5746,531,212,228,2096,16554,4294966424,4294967171,4294967178,4294967196,14343,4294963622,8095,161,231,4294967295
34377085,1716,2506,4294952238,5734,469,182,267,2097,16654,4294966419,4294967206,4294967201,4294967208,14421,4294963646,8092,154,238,21
34383085,4294964933,2563,4294952209,5715,390,177,272,2052,16672,4294966250,4294967252,4294967187,4294967181,14394,4294963665,8077,151,228,4294967288
34389085,1172,2512,4294952208,5783,313,179,273,2147,16696,4294966239,4294967268,4294967171,4294967222,14388,4294963654,8067,156,249,20
34395085,1694,2567,4294952145,5770,249,180,285,2159,16703,4294966334,4294967261,4294967168,4294967192,14395,4294963640,8102,156,231,4294967295
34401085,4294964938,2558,4294952089,5798,220,184,261,2143,16700,4294966287,4294967228,4294967186,4294967214,14420,4294963652,8116,130,233,4294967283
34407085,4294964925,2552,4294952052,5739,194,163,250,2123,16722,4294966261,4294967173,4294967174,4294967230,14396,4294963618,8092,148,238,4294967290
34413085,1708,2588,4294952046,5742,184,186,254,2145,16642,4294966172,4294967134,4294967151,4294967224,14335,4294963638,8005,142,248,4294967285
34419085,4294965933,2612,4294952028,5781,230,168,267,2148,16630,4294966231,4294967099,4294967137,4294967192,14370,4294963649,8072,139,245,2
34425085,4294964925,2590,4294951965,5825,301,214,246,2145,16630,4294966396,4294967116,4294967141,4294967186,14381,4294963603,8123,129,251,4294967272
34431085,1716,2590,4294952006,5717,382,274,240,2135,16604,4294966328,4294967147,4294967137,4294967181,14377,4294963630,8072,146,240,4294967295
34437085,1721,2596,4294952009,5825,498,305,251,2077,16655,4294966242,4294967187,4294967129,4294967159,14390,4294963661,8057,131,259,4294967292
34443085,4294964938,2528,4294952053,5793,613,300,251,2123,16654,4294966281,4294967245,4294967115,4294967170,14360,4294963646,8100,122,250,4294967280
34449085,1130,2554,4294952060,5767,722,336,240,2143,16740,4294966416,4294967277,4294967119,4294967163,14354,4294963603,8097,126,227,4294967280
34455085,1726,2560,4294952144,5789,802,318,255,2107,16714,4294966317,4294967271,4294967134,4294967190,14365,4294963627,8043,149,234,4294967276
34461085,4294964936,2513,4294952119,5776,829,328,278,2128,16656,4294966385,4294967222,4294967136,4294967213,14343,4294963606,8108,146,237,4294967275
34467085,4294964933,2514,4294952186,5815,830,325,261,2138,16640,4294966315,4294967155,4294967147,4294967233,14338,4294963623,8053,151,239,4294967270
34473085,1708,2532,4294952202,5879,799,311,285,2185,16701,4294966172,4294967123,4294967167,4294967231,14392,4294963662,8072,157,223,4294967281
34479085,4294965954,2442,4294952241,5838,716,323,280,2094,16663,4294966256,4294967100,4294967162,4294967227,14363,4294963602,8033,148,228,4294967284
34485085,4294964927,2476,4294952242,5873,591,272,285,2117,16640,4294966250,4294967133,4294967149,4294967220,14362,4294963624,8116,158,228,4294967286
34491085,1710,2536,4294952225,5829,456,246,284,2107,16674,4294966251,4294967161,4294967137,4294967218,14342,4294963621,8051,172,210,1
34497085,1713,2506,4294952210,5827,292,200,266,2149,16671,4294966230,4294967215,4294967128,4294967198,14360,4294963583,8120,176,217,4294967273
34503085,4294964931,2522,4294952161,5871,177,170,284,2083,16712,4294966264,4294967209,4294967146,4294967173,14373,4294963604,8154,176,242,4294967264
34509085,1061,2548,4294952103,5837,75,145,256,2057,16660,4294966311,4294967221,4294967146,4294967190,14360,4294963618,8065,166,229,4294967269
34515085,1712,2510,4294952052,5795,56,133,271,2129,16626,4294966394,4294967187,4294967130,4294967181,14393,4294963609,8065,188,225,4294967278
34521085,4294964941,2585,4294952075,5767,45,151,251,2187,16601,4294966338,4294967170,4294967151,4294967202,14363,4294963592,8130,165,236,4294967272
34527085,4294964918,2554,4294951945,5839,81,151,256,2144,16628,4294966307,4294967139,4294967154,4294967203,14424,4294963639,8099,169,262,4294967263
34533085,1720,2561,4294952016,5745,214,189,276,2144,16631,4294966333,4294967150,4294967163,4294967191,14391,4294963618,8069,160,254,4294967256
34539085,4294965882,2561,4294952035,5761,354,224,273,2109,16685,4294966260,4294967157,4294967146,4294967181,14428,4294963647,7996,185,225,4294967278
34545085,4294964931,2532,4294952071,5778,530,267,276,2070,16700,4294966327,4294967198,4294967149,4294967177,14435,4294963611,8076,180,237,4294967274
34551085,1734,2510,4294952073,5760,683,312,306,2119,16654,4294966356,4294967205,4294967153,4294967189,14386,4294963623,7972,164,258,4294967271
34557085,1712,2478,4294952092,5786,826,337,312,2133,16656,4294966306,4294967211,4294967167,4294967204,14397,4294963609,8034,172,241,4294967263
34563085,4294964929,2491,4294952156,5886,924,359,323,2102,16610,4294966301,4294967192,4294967164,4294967179,14407,4294963637,8055,176,254,4294967268
34569085,1020,2503,4294952150,5802,957,316,348,2104,16701,4294966262,4294967209,4294967146,4294967167,14412,4294963634,8131,171,237,4294967257
34575085,1706,2489,4294952157,5837,954,298,352,2061,16729,4294966235,4294967219,4294967137,4294967129,14411,4294963593,8109,163,256,4294967282
34581085,4294964924,2507,4294952220,5876,909,273,338,2145,16680,4294966289,4294967227,4294967115,4294967149,14408,4294963625,8071,164,264,4294967263
34587085,4294964939,2551,4294952250,5860,785,255,334,2107,16655,4294966386,4294967200,4294967131,4294967126,14403,4294963645,8083,160,248,4294967280
34593085,1722,2585,4294952198,5970,675,261,330,2140,16642,4294966323,4294967182,4294967156,4294967128,14385,4294963615,8156,145,244,4294967274
34599085,4294965984,2606,4294952182,5809,529,211,348,2105,16691,4294966255,4294967165,4294967130,4294967153,14368,4294963596,8054,157,266,4294967267
34605085,4294964934,2517,4294952162,5863,404,234,315,2064,16635,4294966341,4294967150,4294967120,4294967149,14362,4294963628,8121,147,250,4294967271
34611085,1718,2552,4294952147,5860,296,188,291,2139,16645,4294966292,4294967162,4294967120,4294967148,14400,4294963642,8124,143,251,4294967265
34617085,1716,2485,4294952107,5835,233,170,265,2126,16634,4294966266,4294967182,4294967155,4294967162,14369,4294963649,8135,158,235,4294967252
34623085,4294964939,2478,4294952091,5838,158,139,257,2116,16672,4294966284,4294967221,4294967164,4294967167,14382,4294963642,8058,160,264,4294967260
34629085,953,2532,4294952047,5791,158,149,254,2060,16690,4294966273,4294967214,4294967147,4294967164,14382,4294963587,8064,141,250,4294967278
34635085,1727,2466,4294952062,5800,181,174,229,2099,16683,4294966361,4294967245,4294967146,4294967183,14408,4294963633,8096,136,244,4294967288
34641085,4294964938,2479,4294952059,5841,254,208,261,2119,16698,4294966249,4294967239,4294967137,4294967165,14341,4294963618,8070,152,241,4294967275
34647085,4294964928,2522,4294952057,5686,347,240,270,2142,16664,4294966339,4294967236,4294967156,4294967178,14356,4294963601,8133,158,231,4294967280
34653085,1720,2493,4294952073,5738,438,241,271,2073,16670,4294966253,4294967182,4294967175,4294967208,14326,4294963630,8144,152,250,4294967262
34659085,4294966153,2494,4294952082,5771,523,250,279,2118,16720,4294966312,4294967179,4294967171,4294967208,14347,4294963640,8147,135,258,4294967274
34665085,4294964928,2544,4294952106,5708,633,260,289,2091,16745,4294966337,4294967182,4294967161,4294967208,14379,4294963675,8081,165,236,4294967274
34671085,1709,2509,4294952135,5726,704,280,315,2111,16689,4294966263,4294967178,4294967155,4294967191,14347,4294963680,8147,153,232,4294967260
34677085,1713,2575,4294952177,5806,751,301,335,2130,16724,4294966281,4294967191,4294967135,4294967219,14378,4294963643,8116,153,239,4294967271
34683085,4294964943,2534,4294952125,5779,752,306,354,2173,16723,4294966381,4294967198,4294967156,4294967227,14339,4294963609,8058,152,243,4294967248
34689085,885,2535,4294952162,5781,725,305,345,2118,16658,4294966321,4294967172,4294967162,4294967236,14387,4294963619,8028,159,211,4294967262
34695085,1722,2501,4294952145,5869,694,294,353,2127,16628,4294966264,4294967154,4294967176,4294967232,14397,4294963602,8077,149,231,4294967266
34701085,4294964925,2535,4294952160,5819,622,284,313,2090,16638,4294966239,4294967157,4294967148,4294967208,14364,4294963592,8096,154,243,4294967274
34707085,4294964930,2467,4294952142,5860,554,239,314,2146,16631,4294966332,4294967152,4294967153,4294967210,14419,4294963651,8103,163,223,4294967272
34713085,1718,2542,4294952147,5873,421,200,296,2084,16618,4294966299,4294967169,4294967147,4294967221,14371,4294963639,8012,167,236,4294967283
34719085,4294966100,2492,4294952098,5960,317,191,274,2082,16640,4294966286,4294967177,4294967163,4294967198,14403,4294963583,8144,173,239,4
34725085,4294964920,2520,4294952073,5883,275,200,255,2072,16636,4294966320,4294967199,4294967163,4294967212,14351,4294963591,8063,175,238,4294967286
34731085,1707,2543,4294952084,5841,281,215,243,2063,16627,4294966282,4294967209,4294967165,4294967193,14360,4294963583,8094,176,218,4294967283
34737085,1715,2463,4294952084,5789,306,226,242,2045,16618,4294966340,4294967217,4294967149,4294967186,14372,4294963606,8060,173,223,4294967282
34743085,4294964934,2499,4294952094,5773,363,200,231,2101,16654,4294966388,4294967196,4294967162,4294967197,14397,4294963614,8072,191,210,4294967280
34749085,857,2488,4294952065,5835,404,240,254,2139,16648,4294966399,4294967217,4294967174,4294967177,14370,4294963598,8138,184,228,4294967280
34755085,1715,2502,4294952064,5789,458,222,228,2068,16661,4294966283,4294967206,4294967197,4294967190,14388,4294963631,8108,183,226,4294967291
34761085,4294964942,2491,4294952116,5759,534,269,242,2085,16675,4294966327,4294967205,4294967168,4294967200,14329,4294963648,8082,179,224,4294967274
34767085,4294964928,2501,4294952119,5769,590,262,263,2072,16646,4294966333,4294967192,4294967167,4294967197,14395,4294963620,8145,163,208,4294967280
34773085,1714,2531,4294952136,5708,650,284,247,2089,16684,4294966369,4294967229,4294967172,4294967182,14399,4294963603,8142,176,221,4294967283
34779085,4294966173,2537,4294952105,5765,663,252,262,2048,16693,4294966337,4294967229,4294967160,4294967161,14394,4294963588,8061,184,211,4294967274
34785085,4294964941,2548,4294952111,5893,652,258,250,2103,16722,4294966257,4294967240,4294967137,4294967179,14378,4294963640,8057,170,220,4294967267
34791085,1718,2509,4294952138,5840,604,271,265,2121,16661,4294966225,4294967221,4294967145,4294967167,14397,4294963584,8082,162,219,4294967268
34797085,1724,2527,4294952161,5812,527,267,261,2079,16723,4294966219,4294967210,4294967148,4294967192,14397,4294963618,8122,163,217,4294967267
34803085,4294964922,2487,4294952158,5790,462,266,261,2125,16723,4294966266,4294967182,4294967156,4294967183,14406,4294963617,8080,148,232,4294967274
34809085,739,2520,4294952147,5832,413,275,263,2082,16627,4294966273,4294967165,4294967165,4294967207,14382,4294963620,8042,154,212,4294967267
34815085,1706,2502,4294952143,5851,392,245,247,2174,16709,4294966331,4294967157,4294967140,4294967225,14404,4294963600,8141,150,256,4294967280
34821085,4294964952,2479,4294952078,5861,372,220,250,2116,16710,4294966216,4294967140,4294967141,4294967223,14415,4294963611,8076,142,225,4294967280
34827085,4294964930,2511,4294952073,5849,352,168,248,2124,16681,4294966278,4294967163,4294967139,4294967201,14362,4294963617,8046,146,245,4294967247
34833085,1723,2524,4294952128,5825,360,181,245,2142,16680,4294966332,4294967163,4294967150,4294967204,14378,4294963588,8096,162,232,4294967258
34839085,4294966182,2561,4294952087,5804,400,218,219,2069,16629,4294966303,4294967160,4294967133,4294967202,14418,4294963629,8120,153,238,4294967267
34845085,4294964927,2549,4294952069,5882,445,234,245,2100,16661,4294966303,4294967185,4294967139,4294967218,14371,4294963632,8060,158,249,4294967266
34851085,1708,2539,4294952064,5877,493,293,232,2131,16618,4294966282,4294967185,4294967167,4294967202,14392,4294963595,8063,135,257,4294967254
34857085,1718,2502,4294952129,5854,566,301,256,2122,16636,4294966270,4294967198,4294967147,4294967186,14374,4294963637,8098,150,252,4294967271
34863085,4294964930,2471,4294952168,5878,588,290,255,2104,16722,4294966344,4294967236,4294967157,4294967175,14397,4294963651,8088,181,246,4294967264
34869085,718,2525,4294952183,5777,646,291,243,2104,16649,4294966283,4294967228,4294967121,4294967180,14408,4294963605,8134,153,231,4294967271
34875085,1710,2529,4294952130,5770,648,251,238,2109,16712,4294966300,4294967214,4294967146,4294967197,14337,4294963601,8037,157,252,4294967273
34881085,4294964936,2511,4294952180,5845,628,241,236,2083,16653,4294966312,4294967198,4294967153,4294967204,14411,4294963639,8072,146,244,4294967292
34887085,4294964943,2551,4294952157,5805,572,231,252,2073,16687,4294966328,4294967191,4294967145,4294967199,14404,4294963620,8128,176,253,4294967281
34893085,1721,2476,4294952148,5863,507,223,253,2052,16682,4294966267,4294967168,4294967142,4294967196,14425,4294963633,8085,149,246,4294967267
34899085,4294966359,2501,4294952138,5864,463,237,259,2134,16716,4294966282,4294967162,4294967118,4294967215,14384,4294963646,8049,141,253,4294967293
34905085,4294964942,2516,4294952177,5767,412,223,230,2115,16673,4294966277,4294967168,4294967137,4294967209,14398,4294963652,8095,155,255,4294967277
34911085,1709,2569,4294952118,5869,341,190,253,2121,16630,4294966354,4294967160,4294967138,4294967213,14394,4294963627,8096,156,245,4294967287
34917085,1709,2568,4294952185,5873,320,186,256,2109,16643,4294966260,4294967139,4294967141,4294967215,14402,4294963604,8113,163,233,4294967277
34923085,4294964951,2538,4294952139,5759,296,170,258,2072,16570,4294966339,4294967111,4294967143,4294967202,14334,4294963659,8022,147,227,4294967285
34929085,602,2512,4294952108,5794,323,197,257,2072,16522,4294966331,4294967138,4294967179,4294967204,14393,4294963595,8086,159,247,4294967278
34935085,1717,2542,4294952040,5900,366,216,257,2141,16586,4294966370,4294967208,4294967194,4294967163,14378,4294963567,8085,160,234,4294967267
34941085,4294964920,2515,4294952109,5795,426,246,251,2084,16697,4294966319,4294967263,4294967143,4294967147,14357,4294963608,8098,145,243,4294967268
34947085,4294964934,2492,4294952080,5807,460,254,267,2046,16703,4294966240,9,4294967118,4294967148,14388,4294963631,8092,156,235,4294967268
34953085,1718,2512,4294952117,5848,535,262,267,2078,16704,4294966261,22,4294967033,4294967164,14379,4294963628,8061,151,241,4294967267
34959085,4294966280,2513,4294952095,5847,570,246,285,2129,16727,4294966214,4294967273,4294967103,4294967188,14367,4294963592,8083,155,246,4294967259
34965085,4294964926,2489,4294952130,5790,615,245,268,2114,16722,4294966291,4294967202,4294967172,4294967210,14396,4294963638,8093,161,249,4294967270
34971085,1709,2504,4294952152,5769,630,261,279,2111,16670,4294966188,4294967143,4294967205,4294967214,14380,4294963591,8109,156,232,4294967284
34977085,1708,2469,4294952126,5824,646,254,276,2112,16754,4294966195,4294967092,4294967171,4294967227,14395,4294963655,8058,161,242,4294967261
34983085,4294964922,2500,4294952125,5883,649,246,284,2106,16768,4294966174,4294967102,4294967144,4294967209,14352,4294963608,8026,164,254,4294967274
34989085,598,2502,4294952174,5901,595,223,281,2111,16738,4294966104,4294967141,4294967119,4294967216,14406,4294963644,8088,164,245,4294967255
34995085,1719,2491,4294952144,5854,548,234,285,2135,16707,4294966322,4294967167,4294967118,4294967223,14361,4294963636,8071,170,261,4294967268
35001085,4294964936,2499,4294952146,5842,483,236,287,2098,16609,4294966288,4294967160,4294967122,4294967228,14372,4294963643,8068,155,249,4294967263
35007085,4294964935,2525,4294952134,5746,432,266,276,2136,16584,4294966284,4294967124,4294967135,4294967243,14372,4294963645,8157,169,243,4294967263
35013085,1718,2463,4294952146,5818,403,277,264,2086,16564,4294966320,4294967091,4294967137,4294967220,14396,4294963625,8025,168,253,4294967272
35019085,4294966424,2503,4294952154,5760,375,287,259,2068,16655,4294966328,4294967121,4294967138,4294967220,14380,4294963647,8062,162,264,4294967264
35025085,4294964868,2460,4294952111,5796,371,272,300,2088,16693,4294966292,4294967160,4294967159,4294967198,14398,4294963628,8061,178,255,4294967265
35031085,1726,2484,4294952156,5692,359,264,305,2069,16706,4294966297,4294967225,4294967169,4294967213,14410,4294963606,8102,174,252,4294967282
35037085,1722,2476,4294952188,5723,382,258,335,2138,16667,4294966337,4294967238,4294967126,4294967256,14409,4294963586,8083,168,250,4294967277
35043085,4294964948,2499,4294952131,5758,410,242,352,2136,16670,4294966289,4294967247,4294967146,4294967287,14379,4294963633,8111,160,243,4294967273
35049085,520,2501,4294952078,5774,460,257,363,2082,16703,4294966347,4294967180,4294967165,4294967280,14375,4294963590,8030,165,222,4294967274
35055085,1719,2516,4294952058,5929,523,220,336,2001,16687,4294966287,4294967136,4294967175,4294967279,14405,4294963676,8151,177,239,4294967272
35061085,4294964928,2506,4294952025,6010,528,167,339,2134,16644,4294966324,4294967095,4294967158,11,14406,4294963617,8131,169,233,4294967286
35067085,4294964936,2539,4294952044,5955,543,188,343,2104,16633,4294966214,4294967066,4294967167,4294967282,14380,4294963640,8065,157,227,4294967287
35073085,1720,2550,4294952016,5925,562,199,318,2187,16578,4294966242,4294967074,4294967171,4294967275,14389,4294963672,8032,141,243,4294967251
35079085,4294966438,2554,4294952041,5924,558,198,299,2122,16619,4294966339,4294967110,4294967173,4294967250,14354,4294963679,8127,171,236,4294967287
35085085,4294964939,2572,4294952061,5893,581,205,254,2098,16667,4294966281,4294967170,4294967169,4294967225,14345,4294963688,8125,151,236,4294967284
35091085,1716,2537,4294952103,5893,599,241,216,2072,16616,4294966303,4294967213,4294967135,4294967204,14370,4294963596,8052,148,257,4294967268
35097085,1728,2509,4294952137,5882,578,258,202,2127,16619,4294966353,4294967231,4294967128,4294967174,14388,4294963614,8040,147,277,4294967286
35103085,4294964921,2457,4294952139,5862,572,239,185,2144,16649,4294966333,4294967251,4294967153,4294967191,14380,4294963614,8031,148,238,4294967294
35109085,502,2463,4294952194,5889,547,221,191,2092,16666,4294966357,4294967241,4294967152,4294967199,14378,4294963612,8172,136,249,4294967277
35115085,1719,2431,4294952196,5894,503,211,213,2090,16674,4294966274,4294967199,4294967145,4294967189,14393,4294963677,8038,153,249,10
35121085,4294964929,2426,4294952190,5804,476,198,198,2092,16705,4294966297,4294967163,4294967136,4294967193,14382,4294963581,8126,152,257,4294967277
35127085,4294964932,2460,4294952226,5792,428,183,224,2100,16641,4294966284,4294967142,4294967154,4294967201,14380,4294963566,8022,153,236,0
35133085,1718,2447,4294952157,5788,401,153,236,2110,16656,4294966338,4294967129,4294967171,4294967219,14373,4294963610,8089,151,239,1
35139085,4294966555,2507,4294952220,5694,347,177,253,2092,16658,4294966238,4294967166,4294967173,4294967233,14421,4294963638,8088,162,253,4294967285
35145085,4294964931,2497,4294952133,5733,318,149,267,2108,16692,4294966202,4294967184,4294967154,4294967219,14394,4294963669,8127,139,235,4294967277
35151085,1728,2583,4294952148,5732,325,157,268,2114,16688,4294966292,4294967198,4294967130,4294967231,14384,4294963644,8106,157,232,4294967287
35157085,1722,2532,4294952146,5758,284,172,272,2158,16623,4294966207,4294967210,4294967130,4294967212,14369,4294963608,8105,156,226,4294967282
35163085,4294964956,2594,4294952088,5791,308,171,251,2126,16653,4294966240,4294967203,4294967135,4294967209,14361,4294963644,8130,143,232,4294967284
35169085,420,2537,4294952069,5812,321,197,256,2165,16691,4294966270,4294967177,4294967126,4294967186,14389,4294963611,8082,146,254,4294967279
35175085,1722,2563,4294952010,5848,351,221,256,2115,16627,4294966263,4294967177,4294967130,4294967175,14378,4294963624,8087,152,251,4294967285
35181085,4294964927,2497,4294951991,5906,389,242,249,2085,16656,4294966236,4294967183,4294967116,4294967161,14363,4294963630,8034,137,240,4
35187085,4294964938,2482,4294952058,5878,417,249,230,2105,16708,4294966263,4294967214,4294967126,4294967168,14378,4294963577,8165,134,230,4294967291
35193085,1712,2479,4294952018,5896,473,242,219,2095,16703,4294966330,4294967247,4294967125,4294967164,14361,4294963607,8120,154,224,4294967291
35199085,4294966494,2505,4294952076,5854,547,246,212,2064,16702,4294966347,4294967222,4294967097,4294967171,14375,4294963562,8066,136,241,4294967282
35205085,4294964937,2518,4294952153,5779,591,264,208,2110,16680,4294966317,4294967209,4294967084,4294967170,14383,4294963565,8081,135,223,4294967285
35211085,1709,2493,4294952164,5913,627,273,199,2140,16672,4294966291,4294967183,4294967101,4294967185,14320,4294963589,8095,162,222,4294967276
35217085,1724,2498,4294952144,5809,650,281,234,2089,16607,4294966336,4294967155,4294967134,4294967201,14365,4294963619,8084,159,223,4294967272
35223085,4294964937,2450,4294952204,5765,658,298,237,2039,16678,4294966336,4294967114,4294967122,4294967208,14365,4294963616,7971,156,214,4294967275
35229085,323,2466,4294952214,5791,628,263,238,2086,16699,4294966295,4294967114,4294967131,4294967207,14352,4294963594,8083,172,208,4294967279
35235085,1713,2475,4294952217,5885,583,249,278,2127,16732,4294966280,4294967156,4294967144,4294967204,14354,4294963634,8059,156,211,4294967275
35241085,4294964943,2451,4294952212,5877,510,215,272,2125,16634,4294966339,4294967190,4294967175,4294967188,14377,4294963559,8113,163,210,4294967268
35247085,4294964939,2466,4294952165,5935,422,200,263,2121,16649,4294966237,4294967205,4294967143,4294967177,14363,4294963607,8001,179,229,4294967252
35253085,1726,2544,4294952134,5884,318,171,281,2127,16627,4294966317,4294967214,4294967136,4294967166,14375,4294963648,8030,165,220,4294967273
35259085,4294966591,2529,4294952130,5880,241,165,250,2130,16676,4294966318,4294967208,4294967138,4294967167,14420,4294963578,8064,151,210,4294967266
35265085,4294964943,2543,4294952048,5896,171,173,242,2101,16705,4294966353,4294967213,4294967149,4294967166,14365,4294963586,8011,162,219,4294967273
35271085,1713,2518,4294952069,5809,150,169,212,2069,16688,4294966284,4294967194,4294967161,4294967165,14405,4294963578,8050,154,249,4294967255
35277085,1720,2538,4294952040,5783,164,182,216,2068,16675,4294966244,4294967184,4294967120,4294967154,14402,4294963582,8130,154,245,4294967248
35283085,4294964932,2514,4294952062,5891,172,205,220,2100,16702,4294966305,4294967210,4294967118,4294967159,14336,4294963602,8073,164,239,4294967244
35289085,303,2515,4294952079,5815,241,216,218,2142,16742,4294966231,4294967195,4294967126,4294967174,14418,4294963599,8038,157,250,4294967246
35295085,1704,2505,4294952076,5825,350,233,233,2090,16734,4294966271,4294967186,4294967092,4294967173,14403,4294963616,8102,162,234,4294967257
35301085,4294964923,2496,4294952094,5769,469,251,241,2128,16618,4294966295,4294967161,4294967104,4294967180,14432,4294963628,8129,159,249,4294967261
35307085,4294964943,2460,4294952076,5763,590,266,266,2088,16657,4294966341,4294967135,4294967121,4294967191,14433,4294963640,8049,157,260,4294967259
35313085,1713,2446,4294952145,5791,688,286,273,2091,16626,4294966417,4294967143,4294967132,4294967216,14396,4294963627,8095,156,279,4294967277
35319085,4294966653,2514,4294952162,5866,772,294,283,2118,16597,4294966336,4294967138,4294967120,4294967192,14400,4294963629,8066,170,250,4294967273
35325085,4294964940,2527,4294952162,5865,795,293,307,2105,16675,4294966282,4294967140,4294967118,4294967206,14431,4294963614,8129,158,269,4294967265
35331085,1717,2486,4294952181,5838,792,283,320,2062,16687,4294966292,4294967182,4294967137,4294967186,14380,4294963625,7988,162,260,4294967271
35337085,1718,2450,4294952154,5904,736,265,320,2126,16663,4294966329,4294967209,4294967131,4294967183,14341,4294963630,8080,170,257,4294967278
